sub block trial obj foil exp maze DP turn attend pos resp1 resp2 resp3 RT1 RT2 RT3 correct1 correct2 correct3
Subject 05 -- attend vehicles
05 1 01 38 0 1 2 3 +1 0 +1 2 NaN NaN 02.5465 00.0000 00.0000 0 NaN NaN
05 1 02 2 0 1 1 1 +1 0 +1 1 1 1 02.4829 00.9701 07.7929 1 1 0
05 1 03 43 0 1 1 1 +1 0 +1 1 1 2 02.1807 04.4087 01.3434 1 1 1
05 1 04 1 0 1 2 1 -1 0 -1 1 2 1 01.7765 00.9971 01.8825 1 1 1
05 1 05 23 0 1 1 1 -1 1 +1 1 1 1 04.1171 00.5519 02.1120 1 1 1
05 1 06 1 0 1 2 1 -1 1 -1 2 NaN NaN 02.0817 00.0000 00.0000 0 NaN NaN
05 1 07 24 1 0 0 0 +0 0 +0 2 NaN NaN 01.3486 00.0000 00.0000 1 NaN NaN
05 1 08 41 0 1 2 4 +1 0 +1 2 NaN NaN 01.6863 00.0000 00.0000 0 NaN NaN
05 1 09 44 0 1 2 3 -1 0 -1 1 2 2 01.8180 00.4614 01.5931 1 1 0
05 1 10 14 0 1 1 1 -1 0 -1 1 2 1 01.7124 00.8076 01.2213 1 0 1
05 1 11 48 0 1 1 4 +1 1 -1 2 NaN NaN 01.5806 00.0000 00.0000 0 NaN NaN
05 1 12 43 0 1 1 1 +1 1 +1 1 2 1 01.5246 03.5072 01.6810 1 0 0
05 1 13 8 0 1 1 1 -1 0 +1 1 2 2 03.7006 03.6408 02.6878 1 0 0
05 1 14 11 0 1 1 3 +1 1 +1 1 1 2 02.4570 02.5776 01.2691 1 1 1
05 1 15 26 0 1 2 4 -1 0 +1 1 2 1 02.0898 01.8737 00.9146 1 1 1
05 1 16 47 1 0 0 0 +0 0 +0 2 NaN NaN 01.1428 00.0000 00.0000 1 NaN NaN
05 1 17 15 1 0 0 0 +0 0 +0 2 NaN NaN 00.9287 00.0000 00.0000 1 NaN NaN
05 1 18 12 0 1 2 1 +1 1 +1 1 1 1 00.9632 00.5062 00.7244 1 0 0
05 1 19 42 0 1 1 1 +1 1 -1 1 1 1 02.3998 00.7466 00.4586 1 1 0
05 1 20 2 0 1 2 3 +1 1 -1 1 2 1 01.5214 00.4640 01.9487 1 1 0
05 1 21 20 0 1 1 4 -1 1 +1 1 1 2 02.4207 01.2626 00.5841 1 1 0
05 1 22 3 0 1 2 3 -1 0 +1 2 NaN NaN 01.2093 00.0000 00.0000 0 NaN NaN
05 1 23 48 1 0 0 0 +0 0 +0 2 NaN NaN 00.8167 00.0000 00.0000 1 NaN NaN
05 1 24 17 0 1 1 1 -1 1 -1 1 2 2 00.7280 01.3046 00.9294 1 0 0
05 1 25 44 1 0 0 0 +0 0 +0 2 NaN NaN 02.1804 00.0000 00.0000 1 NaN NaN
05 1 26 39 0 1 1 1 +1 1 +1 2 NaN NaN 02.8667 00.0000 00.0000 0 NaN NaN
05 1 27 17 0 1 1 1 -1 0 +1 2 NaN NaN 00.9321 00.0000 00.0000 0 NaN NaN
05 1 28 8 0 1 2 4 +1 1 -1 2 NaN NaN 00.9986 00.0000 00.0000 0 NaN NaN
05 1 29 27 0 1 1 3 +1 0 +1 1 1 2 01.0784 02.2482 01.3054 1 1 1
05 1 30 4 0 1 2 1 +1 0 +1 2 NaN NaN 00.9090 00.0000 00.0000 0 NaN NaN
05 1 31 25 0 1 1 4 -1 1 -1 2 NaN NaN 03.6176 00.0000 00.0000 0 NaN NaN
05 1 32 40 1 0 0 0 +0 0 +0 2 NaN NaN 01.7797 00.0000 00.0000 1 NaN NaN
05 1 33 36 0 1 2 1 -1 1 +1 1 1 2 02.3072 00.8021 00.9118 1 0 0
05 1 34 28 0 1 2 4 +1 0 -1 2 NaN NaN 00.9311 00.0000 00.0000 0 NaN NaN
05 1 35 7 1 0 0 0 +0 0 +0 2 NaN NaN 00.9022 00.0000 00.0000 1 NaN NaN
05 1 36 37 1 0 0 0 +0 0 +0 2 NaN NaN 02.3462 00.0000 00.0000 1 NaN NaN
05 1 37 46 0 1 1 3 -1 0 -1 2 NaN NaN 00.6901 00.0000 00.0000 0 NaN NaN
05 1 38 13 0 1 2 1 +1 1 -1 2 NaN NaN 01.5509 00.0000 00.0000 0 NaN NaN
05 1 39 47 0 1 1 3 -1 0 +1 2 NaN NaN 01.0003 00.0000 00.0000 0 NaN NaN
05 1 40 21 0 1 2 1 +1 0 -1 2 NaN NaN 00.7767 00.0000 00.0000 0 NaN NaN
05 1 41 42 0 1 1 4 +1 0 +1 2 NaN NaN 02.0335 00.0000 00.0000 0 NaN NaN
05 1 42 21 0 1 2 1 -1 1 -1 1 2 1 01.0145 00.6832 01.1021 1 1 1
05 1 43 7 0 1 2 3 +1 1 +1 1 2 2 01.1461 01.5613 01.4790 1 1 1
05 1 44 39 0 1 2 1 +1 0 -1 2 NaN NaN 00.8504 00.0000 00.0000 0 NaN NaN
05 1 45 35 1 0 0 0 +0 0 +0 2 NaN NaN 00.8729 00.0000 00.0000 1 NaN NaN
05 1 46 31 1 0 0 0 +0 0 +0 2 NaN NaN 00.8789 00.0000 00.0000 1 NaN NaN
05 1 47 32 0 1 2 4 -1 1 +1 2 NaN NaN 00.7237 00.0000 00.0000 0 NaN NaN
05 1 48 24 0 1 2 3 +1 0 -1 2 NaN NaN 00.7833 00.0000 00.0000 0 NaN NaN
05 1 49 29 0 1 1 4 -1 0 -1 2 NaN NaN 00.7920 00.0000 00.0000 0 NaN NaN
05 1 50 30 1 0 0 0 +0 0 +0 2 NaN NaN 00.8001 00.0000 00.0000 1 NaN NaN
05 1 51 45 1 0 0 0 +0 0 +0 1 2 1 01.3529 00.5118 00.8252 0 0 0
05 1 52 27 0 1 2 1 -1 1 +1 2 NaN NaN 02.9766 00.0000 00.0000 0 NaN NaN
05 1 53 18 0 1 1 4 +1 0 -1 2 NaN NaN 00.6866 00.0000 00.0000 0 NaN NaN
05 1 54 34 0 1 2 1 -1 0 +1 2 NaN NaN 00.5243 00.0000 00.0000 0 NaN NaN
05 1 55 9 0 1 2 4 -1 0 -1 2 NaN NaN 00.7042 00.0000 00.0000 0 NaN NaN
05 1 56 30 0 1 1 3 -1 1 -1 1 2 1 01.9966 02.3441 00.4689 1 0 1
05 1 57 16 0 1 1 1 +1 0 -1 2 NaN NaN 00.6829 00.0000 00.0000 0 NaN NaN
05 1 58 10 1 0 0 0 +0 0 +0 2 NaN NaN 00.8239 00.0000 00.0000 1 NaN NaN
05 1 59 19 0 1 1 1 -1 0 -1 1 1 1 01.1193 00.7839 00.4142 1 1 1
05 1 60 41 0 1 1 1 -1 1 -1 1 1 1 02.5664 00.6821 01.5647 1 1 1
05 1 61 32 0 1 1 4 -1 0 +1 2 NaN NaN 01.5407 00.0000 00.0000 0 NaN NaN
05 1 62 28 0 1 1 3 -1 1 +1 1 1 2 01.4708 00.7527 01.4086 1 1 0
05 1 63 33 0 1 2 1 -1 0 -1 2 NaN NaN 00.8155 00.0000 00.0000 0 NaN NaN
05 1 64 34 1 0 0 0 +0 0 +0 2 NaN NaN 00.9675 00.0000 00.0000 1 NaN NaN
05 1 65 6 0 1 2 4 -1 1 -1 1 2 1 01.7372 00.9120 02.2969 1 1 1
05 1 66 12 0 1 2 1 -1 0 +1 2 NaN NaN 00.7860 00.0000 00.0000 0 NaN NaN
05 1 67 23 1 0 0 0 +0 0 +0 2 NaN NaN 00.5235 00.0000 00.0000 1 NaN NaN
05 1 68 9 0 1 2 3 -1 1 -1 1 2 2 01.8722 00.6732 00.4520 1 1 0
05 1 69 33 0 1 1 1 +1 1 -1 1 1 2 01.5794 02.7603 00.9638 1 1 1
05 1 70 19 0 1 1 4 +1 1 +1 1 1 2 02.0854 00.6214 00.8348 1 1 1
05 1 71 16 0 1 2 4 +1 1 +1 1 2 1 00.9701 03.2170 01.3374 1 1 0
05 1 72 26 0 1 1 3 +1 1 -1 2 NaN NaN 01.6917 00.0000 00.0000 0 NaN NaN
05 1 73 5 0 1 1 1 +1 0 -1 2 NaN NaN 00.6068 00.0000 00.0000 0 NaN NaN
05 1 74 38 0 1 2 3 -1 1 +1 1 2 1 01.1674 00.4618 01.7055 1 1 1
05 1 75 40 1 0 0 0 +0 0 +0 2 NaN NaN 01.1165 00.0000 00.0000 1 NaN NaN
05 1 76 45 0 1 1 3 +1 0 -1 1 1 1 01.3193 01.4075 01.2520 1 1 0
05 1 77 3 0 1 1 1 -1 1 +1 2 NaN NaN 00.6979 00.0000 00.0000 0 NaN NaN
05 1 78 15 0 1 2 1 +1 1 -1 2 NaN NaN 03.5424 00.0000 00.0000 0 NaN NaN
05 1 79 31 0 1 2 1 +1 0 +1 2 NaN NaN 00.6998 00.0000 00.0000 0 NaN NaN
05 1 80 14 0 1 2 1 +1 1 +1 2 NaN NaN 01.1761 00.0000 00.0000 0 NaN NaN
05 2 01 21 0 1 2 1 +1 0 -1 1 1 1 01.5452 01.0475 00.4589 1 0 0
05 2 02 45 1 0 0 0 +0 0 +0 1 2 2 01.6017 00.4779 00.9849 0 0 0
05 2 03 39 0 1 2 1 +1 0 -1 2 NaN NaN 00.8734 00.0000 00.0000 0 NaN NaN
05 2 04 8 0 1 2 4 +1 1 -1 2 NaN NaN 02.8947 00.0000 00.0000 0 NaN NaN
05 2 05 12 0 1 2 1 +1 1 +1 1 1 2 00.9434 00.6629 00.7783 1 0 1
05 2 06 18 0 1 1 4 +1 0 -1 2 NaN NaN 01.1717 00.0000 00.0000 0 NaN NaN
05 2 07 24 0 1 2 3 +1 0 -1 1 1 2 01.6291 00.8081 00.6605 1 0 1
05 2 08 17 0 1 1 1 -1 0 +1 1 1 1 01.5387 00.7377 00.2904 1 1 1
05 2 09 40 1 0 0 0 +0 0 +0 2 NaN NaN 00.9601 00.0000 00.0000 1 NaN NaN
05 2 10 45 0 1 1 3 +1 0 -1 1 2 2 01.0739 01.3484 00.8592 1 0 1
05 2 11 9 0 1 2 3 -1 1 -1 1 2 1 00.9291 00.5693 00.6408 1 1 1
05 2 12 42 0 1 1 1 +1 1 -1 2 NaN NaN 01.6639 00.0000 00.0000 0 NaN NaN
05 2 13 2 0 1 2 3 +1 1 -1 1 2 2 01.8923 00.3241 00.9980 1 1 1
05 2 14 16 0 1 2 4 +1 1 +1 1 2 1 00.9184 00.8153 00.5884 1 1 0
05 2 15 26 0 1 1 3 +1 1 -1 2 NaN NaN 01.0216 00.0000 00.0000 0 NaN NaN
05 2 16 29 0 1 1 4 -1 0 -1 2 NaN NaN 00.8286 00.0000 00.0000 0 NaN NaN
05 2 17 48 1 0 0 0 +0 0 +0 2 NaN NaN 00.7074 00.0000 00.0000 1 NaN NaN
05 2 18 14 0 1 1 1 -1 0 -1 1 1 1 00.9596 00.3264 00.7917 1 1 1
05 2 19 9 0 1 2 4 -1 0 -1 2 NaN NaN 02.6405 00.0000 00.0000 0 NaN NaN
05 2 20 1 0 1 2 1 -1 1 -1 2 NaN NaN 01.2437 00.0000 00.0000 0 NaN NaN
05 2 21 15 1 0 0 0 +0 0 +0 2 NaN NaN 00.7856 00.0000 00.0000 1 NaN NaN
05 2 22 32 0 1 2 4 -1 1 +1 2 NaN NaN 00.8591 00.0000 00.0000 0 NaN NaN
05 2 23 36 0 1 2 1 -1 1 +1 1 1 2 00.9938 02.0233 00.9941 1 0 0
05 2 24 23 0 1 1 1 -1 1 +1 1 1 1 01.6023 01.1346 00.7344 1 1 1
05 2 25 27 0 1 2 1 -1 1 +1 2 NaN NaN 01.0172 00.0000 00.0000 0 NaN NaN
05 2 26 12 0 1 2 1 -1 0 +1 2 NaN NaN 00.6649 00.0000 00.0000 0 NaN NaN
05 2 27 2 0 1 1 1 +1 0 +1 1 1 1 09.7987 00.8117 00.8089 1 1 0
05 2 28 13 0 1 2 1 +1 1 -1 2 NaN NaN 01.1203 00.0000 00.0000 0 NaN NaN
05 2 29 41 0 1 1 1 -1 1 -1 1 1 2 00.9557 00.4989 01.1168 1 1 0
05 2 30 17 0 1 1 1 -1 1 -1 1 2 2 01.5283 01.0955 00.8886 1 0 0
05 2 31 34 1 0 0 0 +0 0 +0 2 NaN NaN 00.9733 00.0000 00.0000 1 NaN NaN
05 2 32 44 1 0 0 0 +0 0 +0 2 NaN NaN 00.8304 00.0000 00.0000 1 NaN NaN
05 2 33 28 0 1 1 3 -1 1 +1 1 1 2 03.2691 01.5954 01.7037 1 1 0
05 2 34 4 0 1 2 1 +1 0 +1 2 NaN NaN 00.7466 00.0000 00.0000 0 NaN NaN
05 2 35 46 0 1 1 3 -1 0 -1 2 NaN NaN 00.7895 00.0000 00.0000 0 NaN NaN
05 2 36 6 0 1 2 4 -1 1 -1 1 2 1 01.7265 01.2050 00.9781 1 1 1
05 2 37 27 0 1 1 3 +1 0 +1 1 1 2 01.8424 00.7407 00.8213 1 1 1
05 2 38 47 1 0 0 0 +0 0 +0 2 NaN NaN 01.5014 00.0000 00.0000 1 NaN NaN
05 2 39 3 0 1 1 1 -1 1 +1 2 NaN NaN 00.6969 00.0000 00.0000 0 NaN NaN
05 2 40 48 0 1 1 4 +1 1 -1 2 NaN NaN 01.0132 00.0000 00.0000 0 NaN NaN
05 2 41 7 1 0 0 0 +0 0 +0 2 NaN NaN 00.7403 00.0000 00.0000 1 NaN NaN
05 2 42 31 1 0 0 0 +0 0 +0 2 NaN NaN 00.9911 00.0000 00.0000 1 NaN NaN
05 2 43 34 0 1 2 1 -1 0 +1 2 NaN NaN 00.6877 00.0000 00.0000 0 NaN NaN
05 2 44 38 0 1 2 3 -1 1 +1 1 2 2 01.3892 00.5626 01.1461 1 1 0
05 2 45 8 0 1 1 1 -1 0 +1 2 NaN NaN 77.8915 00.0000 00.0000 0 NaN NaN
05 2 46 25 0 1 1 4 -1 1 -1 2 NaN NaN 00.8008 00.0000 00.0000 0 NaN NaN
05 2 47 33 0 1 1 1 +1 1 -1 1 1 1 01.1294 00.3453 00.5379 1 1 0
05 2 48 30 1 0 0 0 +0 0 +0 2 NaN NaN 02.0298 00.0000 00.0000 1 NaN NaN
05 2 49 33 0 1 2 1 -1 0 -1 2 NaN NaN 00.5149 00.0000 00.0000 0 NaN NaN
05 2 50 5 0 1 1 1 +1 0 -1 2 NaN NaN 00.6149 00.0000 00.0000 0 NaN NaN
05 2 51 42 0 1 1 4 +1 0 +1 2 NaN NaN 00.7748 00.0000 00.0000 0 NaN NaN
05 2 52 1 0 1 2 1 -1 0 -1 1 2 1 00.7523 01.1681 01.6306 1 1 1
05 2 53 28 0 1 2 4 +1 0 -1 2 NaN NaN 01.8276 00.0000 00.0000 0 NaN NaN
05 2 54 26 0 1 2 4 -1 0 +1 2 NaN NaN 00.7524 00.0000 00.0000 0 NaN NaN
05 2 55 44 0 1 2 3 -1 0 -1 1 1 1 00.8913 00.5975 00.3638 1 0 1
05 2 56 19 0 1 1 4 +1 1 +1 1 1 2 00.9180 00.4789 00.3780 1 1 1
05 2 57 23 1 0 0 0 +0 0 +0 1 1 2 01.3796 00.6328 00.3815 0 0 0
05 2 58 24 1 0 0 0 +0 0 +0 1 2 2 01.3358 00.4313 00.5244 0 0 0
05 2 59 10 1 0 0 0 +0 0 +0 2 NaN NaN 00.9604 00.0000 00.0000 1 NaN NaN
05 2 60 30 0 1 1 3 -1 1 -1 1 2 1 01.0262 00.6462 00.6982 1 0 1
05 2 61 39 0 1 1 1 +1 1 +1 2 NaN NaN 01.8470 00.0000 00.0000 0 NaN NaN
05 2 62 41 0 1 2 4 +1 0 +1 2 NaN NaN 00.8672 00.0000 00.0000 0 NaN NaN
05 2 63 37 1 0 0 0 +0 0 +0 2 NaN NaN 00.6805 00.0000 00.0000 1 NaN NaN
05 2 64 19 0 1 1 1 -1 0 -1 1 1 2 01.4135 00.4575 00.8058 1 1 0
05 2 65 15 0 1 2 1 +1 1 -1 2 NaN NaN 01.4060 00.0000 00.0000 0 NaN NaN
05 2 66 16 0 1 1 1 +1 0 -1 2 NaN NaN 00.7336 00.0000 00.0000 0 NaN NaN
05 2 67 35 1 0 0 0 +0 0 +0 2 NaN NaN 00.7604 00.0000 00.0000 1 NaN NaN
05 2 68 32 0 1 1 4 -1 0 +1 2 NaN NaN 00.6105 00.0000 00.0000 0 NaN NaN
05 2 69 7 0 1 2 3 +1 1 +1 1 1 1 00.8351 00.3662 00.4141 1 0 0
05 2 70 43 0 1 1 1 +1 1 +1 1 2 2 00.9342 00.5105 01.2080 1 0 1
05 2 71 31 0 1 2 1 +1 0 +1 2 NaN NaN 01.1034 00.0000 00.0000 0 NaN NaN
05 2 72 3 0 1 2 3 -1 0 +1 2 NaN NaN 00.6035 00.0000 00.0000 0 NaN NaN
05 2 73 43 0 1 1 1 +1 0 +1 2 NaN NaN 00.4127 00.0000 00.0000 0 NaN NaN
05 2 74 47 0 1 1 3 -1 0 +1 2 NaN NaN 00.8536 00.0000 00.0000 0 NaN NaN
05 2 75 14 0 1 2 1 +1 1 +1 2 NaN NaN 01.5483 00.0000 00.0000 0 NaN NaN
05 2 76 20 0 1 1 4 -1 1 +1 1 1 2 00.9650 00.8437 00.4235 1 1 0
05 2 77 40 1 0 0 0 +0 0 +0 2 NaN NaN 00.9918 00.0000 00.0000 1 NaN NaN
05 2 78 21 0 1 2 1 -1 1 -1 1 2 2 01.2321 01.5316 00.7787 1 1 0
05 2 79 11 0 1 1 3 +1 1 +1 1 1 1 04.4195 00.3296 00.4590 1 1 0
05 2 80 38 0 1 2 3 +1 0 +1 2 NaN NaN 00.7210 00.0000 00.0000 0 NaN NaN
05 3 01 33 0 1 1 1 +1 1 -1 1 1 1 01.4111 00.4072 01.2370 1 1 0
05 3 02 46 0 1 1 3 -1 0 -1 1 1 2 01.0995 00.4927 00.3111 1 1 0
05 3 03 12 0 1 2 1 +1 1 +1 1 1 2 00.8354 00.4479 00.6042 1 0 1
05 3 04 6 0 1 2 4 -1 1 -1 1 2 1 00.9727 00.4346 00.5287 1 1 1
05 3 05 23 1 0 0 0 +0 0 +0 1 1 1 01.1879 00.3857 00.3528 0 0 0
05 3 06 7 1 0 0 0 +0 0 +0 2 NaN NaN 00.8764 00.0000 00.0000 1 NaN NaN
05 3 07 28 0 1 2 4 +1 0 -1 2 NaN NaN 01.1057 00.0000 00.0000 0 NaN NaN
05 3 08 41 0 1 2 4 +1 0 +1 2 NaN NaN 00.8300 00.0000 00.0000 0 NaN NaN
05 3 09 27 0 1 1 3 +1 0 +1 1 1 2 00.8207 00.4646 00.3814 1 1 1
05 3 10 48 0 1 1 4 +1 1 -1 2 NaN NaN 01.1430 00.0000 00.0000 0 NaN NaN
05 3 11 21 0 1 2 1 -1 1 -1 1 2 2 00.7692 00.3365 00.3698 1 1 0
05 3 12 4 0 1 2 1 +1 0 +1 2 NaN NaN 00.8125 00.0000 00.0000 0 NaN NaN
05 3 13 47 1 0 0 0 +0 0 +0 2 NaN NaN 00.7880 00.0000 00.0000 1 NaN NaN
05 3 14 47 0 1 1 3 -1 0 +1 2 NaN NaN 00.8448 00.0000 00.0000 0 NaN NaN
05 3 15 40 1 0 0 0 +0 0 +0 2 NaN NaN 00.8828 00.0000 00.0000 1 NaN NaN
05 3 16 8 0 1 1 1 -1 0 +1 1 2 1 01.2241 00.3564 00.2609 1 0 1
05 3 17 45 0 1 1 3 +1 0 -1 1 2 2 00.7715 00.3383 00.5798 1 0 1
05 3 18 43 0 1 1 1 +1 0 +1 1 2 1 01.0132 00.2972 00.6999 1 0 0
05 3 19 45 1 0 0 0 +0 0 +0 1 2 2 01.4807 00.3781 00.2973 0 0 0
05 3 20 44 0 1 2 3 -1 0 -1 1 1 2 00.9829 00.2690 00.3051 1 0 0
05 3 21 19 0 1 1 1 -1 0 -1 1 1 1 00.7983 00.3320 00.2534 1 1 1
05 3 22 29 0 1 1 4 -1 0 -1 1 2 1 01.1005 00.3337 00.3190 1 0 1
05 3 23 24 0 1 2 3 +1 0 -1 2 NaN NaN 02.8279 00.0000 00.0000 0 NaN NaN
05 3 24 19 0 1 1 4 +1 1 +1 1 1 2 01.5516 00.1873 00.5631 1 1 1
05 3 25 12 0 1 2 1 -1 0 +1 2 NaN NaN 01.8453 00.0000 00.0000 0 NaN NaN
05 3 26 38 0 1 2 3 +1 0 +1 2 NaN NaN 00.6734 00.0000 00.0000 0 NaN NaN
05 3 27 23 0 1 1 1 -1 1 +1 1 1 1 01.5831 00.2345 00.4482 1 1 1
05 3 28 30 0 1 1 3 -1 1 -1 1 2 2 01.6076 00.6274 00.4245 1 0 0
05 3 29 41 0 1 1 1 -1 1 -1 1 1 2 01.8408 00.2113 00.5534 1 1 0
05 3 30 8 0 1 2 4 +1 1 -1 2 NaN NaN 00.8440 00.0000 00.0000 0 NaN NaN
05 3 31 34 0 1 2 1 -1 0 +1 2 NaN NaN 00.5626 00.0000 00.0000 0 NaN NaN
05 3 32 11 0 1 1 3 +1 1 +1 1 2 2 02.1325 00.3144 00.5886 1 0 1
05 3 33 16 0 1 2 4 +1 1 +1 1 2 1 01.1183 00.2868 00.3543 1 1 0
05 3 34 35 1 0 0 0 +0 0 +0 2 NaN NaN 00.7812 00.0000 00.0000 1 NaN NaN
05 3 35 39 0 1 1 1 +1 1 +1 2 NaN NaN 00.6466 00.0000 00.0000 0 NaN NaN
05 3 36 40 1 0 0 0 +0 0 +0 2 NaN NaN 00.5812 00.0000 00.0000 1 NaN NaN
05 3 37 26 0 1 1 3 +1 1 -1 2 NaN NaN 00.6784 00.0000 00.0000 0 NaN NaN
05 3 38 10 1 0 0 0 +0 0 +0 2 NaN NaN 02.5633 00.0000 00.0000 1 NaN NaN
05 3 39 2 0 1 1 1 +1 0 +1 1 1 1 01.0099 00.2793 00.3467 1 1 0
05 3 40 42 0 1 1 1 +1 1 -1 2 NaN NaN 01.3657 00.0000 00.0000 0 NaN NaN
05 3 41 26 0 1 2 4 -1 0 +1 2 NaN NaN 00.6789 00.0000 00.0000 0 NaN NaN
05 3 42 44 1 0 0 0 +0 0 +0 2 NaN NaN 00.8844 00.0000 00.0000 1 NaN NaN
05 3 43 33 0 1 2 1 -1 0 -1 2 NaN NaN 00.5851 00.0000 00.0000 0 NaN NaN
05 3 44 2 0 1 2 3 +1 1 -1 2 NaN NaN 00.9069 00.0000 00.0000 0 NaN NaN
05 3 45 28 0 1 1 3 -1 1 +1 2 NaN NaN 00.6228 00.0000 00.0000 0 NaN NaN
05 3 46 39 0 1 2 1 +1 0 -1 2 NaN NaN 00.7828 00.0000 00.0000 0 NaN NaN
05 3 47 32 0 1 2 4 -1 1 +1 2 NaN NaN 00.7281 00.0000 00.0000 0 NaN NaN
05 3 48 30 1 0 0 0 +0 0 +0 2 NaN NaN 00.4991 00.0000 00.0000 1 NaN NaN
05 3 49 31 0 1 2 1 +1 0 +1 2 NaN NaN 00.5203 00.0000 00.0000 0 NaN NaN
05 3 50 25 0 1 1 4 -1 1 -1 2 NaN NaN 02.0131 00.0000 00.0000 0 NaN NaN
05 3 51 42 0 1 1 4 +1 0 +1 2 NaN NaN 00.6101 00.0000 00.0000 0 NaN NaN
05 3 52 36 0 1 2 1 -1 1 +1 1 1 2 00.9306 00.2188 00.2892 1 0 0
05 3 53 15 0 1 2 1 +1 1 -1 2 NaN NaN 00.9748 00.0000 00.0000 0 NaN NaN
05 3 54 5 0 1 1 1 +1 0 -1 2 NaN NaN 00.6718 00.0000 00.0000 0 NaN NaN
05 3 55 38 0 1 2 3 -1 1 +1 1 2 1 01.9023 00.2540 00.7537 1 1 1
05 3 56 9 0 1 2 3 -1 1 -1 1 2 2 01.0690 00.4156 00.4295 1 1 0
05 3 57 15 1 0 0 0 +0 0 +0 2 NaN NaN 00.8054 00.0000 00.0000 1 NaN NaN
05 3 58 20 0 1 1 4 -1 1 +1 1 1 2 00.9898 00.2584 00.9520 1 1 0
05 3 59 16 0 1 1 1 +1 0 -1 1 1 2 00.9862 00.2725 00.3722 1 1 1
05 3 60 32 0 1 1 4 -1 0 +1 2 NaN NaN 00.7668 00.0000 00.0000 0 NaN NaN
05 3 61 37 1 0 0 0 +0 0 +0 2 NaN NaN 00.5844 00.0000 00.0000 1 NaN NaN
05 3 62 17 0 1 1 1 -1 1 -1 1 2 1 00.9855 00.2396 00.3717 1 0 1
05 3 63 3 0 1 1 1 -1 1 +1 2 NaN NaN 00.9587 00.0000 00.0000 0 NaN NaN
05 3 64 31 1 0 0 0 +0 0 +0 2 NaN NaN 00.7046 00.0000 00.0000 1 NaN NaN
05 3 65 18 0 1 1 4 +1 0 -1 2 NaN NaN 00.6054 00.0000 00.0000 0 NaN NaN
05 3 66 7 0 1 2 3 +1 1 +1 2 NaN NaN 02.1586 00.0000 00.0000 0 NaN NaN
05 3 67 34 1 0 0 0 +0 0 +0 2 NaN NaN 00.5429 00.0000 00.0000 1 NaN NaN
05 3 68 1 0 1 2 1 -1 0 -1 1 2 1 02.4020 00.3168 00.7669 1 1 1
05 3 69 14 0 1 1 1 -1 0 -1 1 1 2 00.8410 00.7088 00.4221 1 1 0
05 3 70 24 1 0 0 0 +0 0 +0 1 2 2 02.0148 00.2490 00.5737 0 0 0
05 3 71 1 0 1 2 1 -1 1 -1 2 NaN NaN 03.1358 00.0000 00.0000 0 NaN NaN
05 3 72 17 0 1 1 1 -1 0 +1 2 NaN NaN 00.7099 00.0000 00.0000 0 NaN NaN
05 3 73 43 0 1 1 1 +1 1 +1 1 2 2 01.4095 00.2134 00.2836 1 0 1
05 3 74 3 0 1 2 3 -1 0 +1 2 NaN NaN 00.6972 00.0000 00.0000 0 NaN NaN
05 3 75 27 0 1 2 1 -1 1 +1 2 NaN NaN 01.6062 00.0000 00.0000 0 NaN NaN
05 3 76 13 0 1 2 1 +1 1 -1 2 NaN NaN 00.7329 00.0000 00.0000 0 NaN NaN
05 3 77 21 0 1 2 1 +1 0 -1 2 NaN NaN 00.6799 00.0000 00.0000 0 NaN NaN
05 3 78 14 0 1 2 1 +1 1 +1 2 NaN NaN 00.6768 00.0000 00.0000 0 NaN NaN
05 3 79 9 0 1 2 4 -1 0 -1 2 NaN NaN 00.5783 00.0000 00.0000 0 NaN NaN
05 3 80 48 1 0 0 0 +0 0 +0 2 NaN NaN 00.4996 00.0000 00.0000 1 NaN NaN
05 4 01 44 0 1 2 3 -1 0 -1 2 NaN NaN 01.0077 00.0000 00.0000 0 NaN NaN
05 4 02 17 0 1 1 1 -1 0 +1 2 NaN NaN 00.7353 00.0000 00.0000 0 NaN NaN
05 4 03 33 0 1 2 1 -1 0 -1 2 NaN NaN 00.6347 00.0000 00.0000 0 NaN NaN
05 4 04 44 1 0 0 0 +0 0 +0 2 NaN NaN 00.7465 00.0000 00.0000 1 NaN NaN
05 4 05 14 0 1 1 1 -1 0 -1 1 1 2 00.8048 00.2257 00.2642 1 1 0
05 4 06 39 0 1 1 1 +1 1 +1 1 1 2 01.8466 00.1683 00.2087 1 1 1
05 4 07 10 1 0 0 0 +0 0 +0 2 NaN NaN 00.9939 00.0000 00.0000 1 NaN NaN
05 4 08 32 0 1 2 4 -1 1 +1 2 NaN NaN 00.6102 00.0000 00.0000 0 NaN NaN
05 4 09 31 1 0 0 0 +0 0 +0 2 NaN NaN 00.6421 00.0000 00.0000 1 NaN NaN
05 4 10 30 1 0 0 0 +0 0 +0 2 NaN NaN 00.6258 00.0000 00.0000 1 NaN NaN
05 4 11 14 0 1 2 1 +1 1 +1 2 NaN NaN 00.9616 00.0000 00.0000 0 NaN NaN
05 4 12 37 1 0 0 0 +0 0 +0 2 NaN NaN 00.5308 00.0000 00.0000 1 NaN NaN
05 4 13 3 0 1 1 1 -1 1 +1 2 NaN NaN 00.5986 00.0000 00.0000 0 NaN NaN
05 4 14 4 0 1 2 1 +1 0 +1 2 NaN NaN 00.7919 00.0000 00.0000 0 NaN NaN
05 4 15 40 1 0 0 0 +0 0 +0 2 NaN NaN 00.5128 00.0000 00.0000 1 NaN NaN
05 4 16 27 0 1 2 1 -1 1 +1 2 NaN NaN 00.7887 00.0000 00.0000 0 NaN NaN
05 4 17 5 0 1 1 1 +1 0 -1 2 NaN NaN 00.3817 00.0000 00.0000 0 NaN NaN
05 4 18 48 1 0 0 0 +0 0 +0 2 NaN NaN 00.4552 00.0000 00.0000 1 NaN NaN
05 4 19 20 0 1 1 4 -1 1 +1 1 1 2 02.5420 00.1630 00.2033 1 1 0
05 4 20 26 0 1 2 4 -1 0 +1 2 NaN NaN 02.7652 00.0000 00.0000 0 NaN NaN
05 4 21 21 0 1 2 1 -1 1 -1 1 1 1 02.0189 00.1417 00.1667 1 0 1
05 4 22 35 1 0 0 0 +0 0 +0 2 NaN NaN 00.8259 00.0000 00.0000 1 NaN NaN
05 4 23 18 0 1 1 4 +1 0 -1 2 NaN NaN 00.4332 00.0000 00.0000 0 NaN NaN
05 4 24 2 0 1 1 1 +1 0 +1 1 1 2 01.2089 00.1658 00.1582 1 1 1
05 4 25 23 0 1 1 1 -1 1 +1 1 1 1 02.3696 00.1896 00.1325 1 1 1
05 4 26 33 0 1 1 1 +1 1 -1 1 1 2 01.9607 00.1981 00.2531 1 1 1
05 4 27 45 1 0 0 0 +0 0 +0 1 2 1 01.1967 00.2018 00.1287 0 0 0
05 4 28 36 0 1 2 1 -1 1 +1 1 1 2 03.8295 00.1807 00.1726 1 0 0
05 4 29 13 0 1 2 1 +1 1 -1 2 NaN NaN 01.0391 00.0000 00.0000 0 NaN NaN
05 4 30 1 0 1 2 1 -1 1 -1 2 NaN NaN 00.7499 00.0000 00.0000 0 NaN NaN
05 4 31 30 0 1 1 3 -1 1 -1 1 1 1 02.3122 00.1497 00.1588 1 1 1
05 4 32 47 0 1 1 3 -1 0 +1 2 NaN NaN 02.1454 00.0000 00.0000 0 NaN NaN
05 4 33 41 0 1 1 1 -1 1 -1 2 NaN NaN 00.7216 00.0000 00.0000 0 NaN NaN
05 4 34 38 0 1 2 3 +1 0 +1 2 NaN NaN 00.5732 00.0000 00.0000 0 NaN NaN
05 4 35 6 0 1 2 4 -1 1 -1 1 2 2 01.9511 00.1886 00.1796 1 1 0
05 4 36 34 1 0 0 0 +0 0 +0 2 NaN NaN 00.6949 00.0000 00.0000 1 NaN NaN
05 4 37 24 0 1 2 3 +1 0 -1 2 NaN NaN 00.5318 00.0000 00.0000 0 NaN NaN
05 4 38 8 0 1 2 4 +1 1 -1 2 NaN NaN 01.6077 00.0000 00.0000 0 NaN NaN
05 4 39 9 0 1 2 4 -1 0 -1 2 NaN NaN 00.7350 00.0000 00.0000 0 NaN NaN
05 4 40 48 0 1 1 4 +1 1 -1 2 NaN NaN 00.6027 00.0000 00.0000 0 NaN NaN
05 4 41 19 0 1 1 4 +1 1 +1 2 NaN NaN 00.9239 00.0000 00.0000 0 NaN NaN
05 4 42 19 0 1 1 1 -1 0 -1 2 NaN NaN 00.6397 00.0000 00.0000 0 NaN NaN
05 4 43 28 0 1 2 4 +1 0 -1 2 NaN NaN 00.9908 00.0000 00.0000 0 NaN NaN
05 4 44 8 0 1 1 1 -1 0 +1 2 NaN NaN 00.4793 00.0000 00.0000 0 NaN NaN
05 4 45 17 0 1 1 1 -1 1 -1 1 2 2 03.8453 00.2112 00.1541 1 0 0
05 4 46 39 0 1 2 1 +1 0 -1 2 NaN NaN 01.3735 00.0000 00.0000 0 NaN NaN
05 4 47 31 0 1 2 1 +1 0 +1 2 NaN NaN 00.4145 00.0000 00.0000 0 NaN NaN
05 4 48 7 1 0 0 0 +0 0 +0 2 NaN NaN 00.3754 00.0000 00.0000 1 NaN NaN
05 4 49 43 0 1 1 1 +1 1 +1 1 2 1 01.2016 00.2067 00.1656 1 0 0
05 4 50 16 0 1 1 1 +1 0 -1 1 1 2 02.6962 00.1511 00.1761 1 1 1
05 4 51 46 0 1 1 3 -1 0 -1 2 NaN NaN 00.8820 00.0000 00.0000 0 NaN NaN
05 4 52 24 1 0 0 0 +0 0 +0 1 2 2 01.2067 00.1636 00.1719 0 0 0
05 4 53 11 0 1 1 3 +1 1 +1 1 1 1 01.6946 00.1507 00.3038 1 1 0
05 4 54 27 0 1 1 3 +1 0 +1 1 1 2 01.5007 00.1572 00.1820 1 1 1
05 4 55 12 0 1 2 1 -1 0 +1 2 NaN NaN 00.7281 00.0000 00.0000 0 NaN NaN
05 4 56 47 1 0 0 0 +0 0 +0 2 NaN NaN 00.8190 00.0000 00.0000 1 NaN NaN
05 4 57 15 0 1 2 1 +1 1 -1 2 NaN NaN 00.5704 00.0000 00.0000 0 NaN NaN
05 4 58 12 0 1 2 1 +1 1 +1 1 1 2 01.9963 00.1517 00.1608 1 0 1
05 4 59 2 0 1 2 3 +1 1 -1 2 NaN NaN 01.0113 00.0000 00.0000 0 NaN NaN
05 4 60 41 0 1 2 4 +1 0 +1 2 NaN NaN 00.6743 00.0000 00.0000 0 NaN NaN
05 4 61 38 0 1 2 3 -1 1 +1 1 2 2 02.4008 00.1394 00.1653 1 1 0
05 4 62 40 1 0 0 0 +0 0 +0 2 NaN NaN 00.5845 00.0000 00.0000 1 NaN NaN
05 4 63 29 0 1 1 4 -1 0 -1 2 NaN NaN 00.5225 00.0000 00.0000 0 NaN NaN
05 4 64 25 0 1 1 4 -1 1 -1 2 NaN NaN 00.7345 00.0000 00.0000 0 NaN NaN
05 4 65 45 0 1 1 3 +1 0 -1 1 2 1 01.2418 00.2454 00.1545 1 0 0
05 4 66 34 0 1 2 1 -1 0 +1 2 NaN NaN 01.7898 00.0000 00.0000 0 NaN NaN
05 4 67 21 0 1 2 1 +1 0 -1 2 NaN NaN 00.5093 00.0000 00.0000 0 NaN NaN
05 4 68 16 0 1 2 4 +1 1 +1 1 2 1 01.2974 00.2022 00.1451 1 1 0
05 4 69 1 0 1 2 1 -1 0 -1 1 2 1 04.4530 00.2017 00.1608 1 1 1
05 4 70 42 0 1 1 4 +1 0 +1 2 NaN NaN 01.9720 00.0000 00.0000 0 NaN NaN
05 4 71 32 0 1 1 4 -1 0 +1 2 NaN NaN 00.8119 00.0000 00.0000 0 NaN NaN
05 4 72 42 0 1 1 1 +1 1 -1 2 NaN NaN 00.8193 00.0000 00.0000 0 NaN NaN
05 4 73 9 0 1 2 3 -1 1 -1 1 2 2 01.6747 00.2434 00.1210 1 1 0
05 4 74 26 0 1 1 3 +1 1 -1 2 NaN NaN 02.3817 00.0000 00.0000 0 NaN NaN
05 4 75 28 0 1 1 3 -1 1 +1 2 NaN NaN 00.7875 00.0000 00.0000 0 NaN NaN
05 4 76 15 1 0 0 0 +0 0 +0 2 NaN NaN 00.8769 00.0000 00.0000 1 NaN NaN
05 4 77 23 1 0 0 0 +0 0 +0 2 NaN NaN 00.5461 00.0000 00.0000 1 NaN NaN
05 4 78 43 0 1 1 1 +1 0 +1 1 1 2 02.3888 00.1443 00.2013 1 1 1
05 4 79 3 0 1 2 3 -1 0 +1 2 NaN NaN 03.7713 00.0000 00.0000 0 NaN NaN
05 4 80 7 0 1 2 3 +1 1 +1 1 1 1 03.4315 00.2951 00.8577 1 0 0
05 5 01 27 0 1 1 3 +1 0 +1 1 1 2 02.7298 00.1667 00.2708 1 1 1
05 5 02 14 0 1 2 1 +1 1 +1 2 NaN NaN 03.7573 00.0000 00.0000 0 NaN NaN
05 5 03 4 0 1 2 1 +1 0 +1 2 NaN NaN 00.5864 00.0000 00.0000 0 NaN NaN
05 5 04 34 1 0 0 0 +0 0 +0 2 NaN NaN 00.8283 00.0000 00.0000 1 NaN NaN
05 5 05 23 1 0 0 0 +0 0 +0 2 NaN NaN 00.4991 00.0000 00.0000 1 NaN NaN
05 5 06 6 0 1 2 4 -1 1 -1 1 2 1 01.9603 00.2619 00.1380 1 1 1
05 5 07 13 0 1 2 1 +1 1 -1 2 NaN NaN 00.7507 00.0000 00.0000 0 NaN NaN
05 5 08 32 0 1 1 4 -1 0 +1 2 NaN NaN 00.5217 00.0000 00.0000 0 NaN NaN
05 5 09 27 0 1 2 1 -1 1 +1 2 NaN NaN 01.2464 00.0000 00.0000 0 NaN NaN
05 5 10 34 0 1 2 1 -1 0 +1 2 NaN NaN 00.4035 00.0000 00.0000 0 NaN NaN
05 5 11 30 0 1 1 3 -1 1 -1 1 1 2 01.3252 00.1482 00.1743 1 1 0
05 5 12 36 0 1 2 1 -1 1 +1 1 1 2 01.1049 00.1622 01.2105 1 0 0
05 5 13 28 0 1 2 4 +1 0 -1 2 NaN NaN 00.6425 00.0000 00.0000 0 NaN NaN
05 5 14 31 1 0 0 0 +0 0 +0 2 NaN NaN 00.6409 00.0000 00.0000 1 NaN NaN
05 5 15 40 1 0 0 0 +0 0 +0 2 NaN NaN 00.5758 00.0000 00.0000 1 NaN NaN
05 5 16 39 0 1 1 1 +1 1 +1 2 NaN NaN 00.3857 00.0000 00.0000 0 NaN NaN
05 5 17 42 0 1 1 4 +1 0 +1 2 NaN NaN 00.5874 00.0000 00.0000 0 NaN NaN
05 5 18 30 1 0 0 0 +0 0 +0 2 NaN NaN 00.5886 00.0000 00.0000 1 NaN NaN
05 5 19 38 0 1 2 3 +1 0 +1 2 NaN NaN 00.6058 00.0000 00.0000 0 NaN NaN
05 5 20 44 0 1 2 3 -1 0 -1 1 1 1 01.1183 00.1748 00.2144 1 0 1
05 5 21 41 0 1 2 4 +1 0 +1 2 NaN NaN 00.6150 00.0000 00.0000 0 NaN NaN
05 5 22 14 0 1 1 1 -1 0 -1 1 1 2 00.9028 00.1603 00.1526 1 1 0
05 5 23 46 0 1 1 3 -1 0 -1 2 NaN NaN 00.7321 00.0000 00.0000 0 NaN NaN
05 5 24 29 0 1 1 4 -1 0 -1 1 1 2 01.9588 00.1802 00.1881 1 1 0
05 5 25 25 0 1 1 4 -1 1 -1 2 NaN NaN 00.7667 00.0000 00.0000 0 NaN NaN
05 5 26 8 0 1 2 4 +1 1 -1 2 NaN NaN 00.5842 00.0000 00.0000 0 NaN NaN
05 5 27 7 1 0 0 0 +0 0 +0 2 NaN NaN 00.5213 00.0000 00.0000 1 NaN NaN
05 5 28 3 0 1 1 1 -1 1 +1 2 NaN NaN 00.7174 00.0000 00.0000 0 NaN NaN
05 5 29 21 0 1 2 1 -1 1 -1 1 2 1 02.4895 00.2407 00.5176 1 1 1
05 5 30 47 0 1 1 3 -1 0 +1 2 NaN NaN 01.0176 00.0000 00.0000 0 NaN NaN
05 5 31 18 0 1 1 4 +1 0 -1 2 NaN NaN 00.4572 00.0000 00.0000 0 NaN NaN
05 5 32 21 0 1 2 1 +1 0 -1 2 NaN NaN 00.4000 00.0000 00.0000 0 NaN NaN
05 5 33 33 0 1 1 1 +1 1 -1 1 1 2 01.2730 00.1304 00.1569 1 1 1
05 5 34 47 1 0 0 0 +0 0 +0 2 NaN NaN 01.1362 00.0000 00.0000 1 NaN NaN
05 5 35 31 0 1 2 1 +1 0 +1 2 NaN NaN 00.4584 00.0000 00.0000 0 NaN NaN
05 5 36 23 0 1 1 1 -1 1 +1 1 1 2 01.2643 00.1386 00.1634 1 1 0
05 5 37 15 0 1 2 1 +1 1 -1 2 NaN NaN 00.5196 00.0000 00.0000 0 NaN NaN
05 5 38 5 0 1 1 1 +1 0 -1 2 NaN NaN 00.3803 00.0000 00.0000 0 NaN NaN
05 5 39 11 0 1 1 3 +1 1 +1 1 1 2 01.5739 00.1626 00.1398 1 1 1
05 5 40 2 0 1 2 3 +1 1 -1 2 NaN NaN 00.4638 00.0000 00.0000 0 NaN NaN
05 5 41 28 0 1 1 3 -1 1 +1 2 NaN NaN 00.7740 00.0000 00.0000 0 NaN NaN
05 5 42 48 1 0 0 0 +0 0 +0 2 NaN NaN 00.5915 00.0000 00.0000 1 NaN NaN
05 5 43 24 1 0 0 0 +0 0 +0 2 NaN NaN 00.9765 00.0000 00.0000 1 NaN NaN
05 5 44 10 1 0 0 0 +0 0 +0 2 NaN NaN 02.0491 00.0000 00.0000 1 NaN NaN
05 5 45 32 0 1 2 4 -1 1 +1 2 NaN NaN 00.5807 00.0000 00.0000 0 NaN NaN
05 5 46 40 1 0 0 0 +0 0 +0 2 NaN NaN 00.5659 00.0000 00.0000 1 NaN NaN
05 5 47 2 0 1 1 1 +1 0 +1 1 1 2 01.0798 00.1537 00.2265 1 1 1
05 5 48 44 1 0 0 0 +0 0 +0 2 NaN NaN 00.8191 00.0000 00.0000 1 NaN NaN
05 5 49 15 1 0 0 0 +0 0 +0 2 NaN NaN 00.7147 00.0000 00.0000 1 NaN NaN
05 5 50 43 0 1 1 1 +1 1 +1 1 2 1 01.7822 00.1548 00.1465 1 0 0
05 5 51 45 1 0 0 0 +0 0 +0 2 NaN NaN 01.6871 00.0000 00.0000 1 NaN NaN
05 5 52 17 0 1 1 1 -1 0 +1 2 NaN NaN 00.5062 00.0000 00.0000 0 NaN NaN
05 5 53 12 0 1 2 1 +1 1 +1 1 1 2 01.0554 02.4189 00.1729 1 0 1
05 5 54 19 0 1 1 4 +1 1 +1 2 NaN NaN 05.0235 00.0000 00.0000 0 NaN NaN
05 5 55 12 0 1 2 1 -1 0 +1 2 NaN NaN 00.6955 00.0000 00.0000 0 NaN NaN
05 5 56 1 0 1 2 1 -1 0 -1 1 2 1 03.0918 00.2419 00.5034 1 1 1
05 5 57 7 0 1 2 3 +1 1 +1 1 1 2 02.5401 00.1771 00.2967 1 0 1
05 5 58 43 0 1 1 1 +1 0 +1 1 1 1 01.3338 00.1893 00.2281 1 1 0
05 5 59 39 0 1 2 1 +1 0 -1 2 NaN NaN 01.3014 00.0000 00.0000 0 NaN NaN
05 5 60 26 0 1 1 3 +1 1 -1 2 NaN NaN 00.7772 00.0000 00.0000 0 NaN NaN
05 5 61 19 0 1 1 1 -1 0 -1 1 1 2 01.0427 00.1666 00.2230 1 1 0
05 5 62 33 0 1 2 1 -1 0 -1 2 NaN NaN 00.5277 00.0000 00.0000 0 NaN NaN
05 5 63 24 0 1 2 3 +1 0 -1 2 NaN NaN 00.5315 00.0000 00.0000 0 NaN NaN
05 5 64 42 0 1 1 1 +1 1 -1 2 NaN NaN 00.5994 00.0000 00.0000 0 NaN NaN
05 5 65 26 0 1 2 4 -1 0 +1 2 NaN NaN 00.4887 00.0000 00.0000 0 NaN NaN
05 5 66 9 0 1 2 3 -1 1 -1 1 2 1 01.2461 00.1850 00.1926 1 1 1
05 5 67 38 0 1 2 3 -1 1 +1 1 2 2 50.8504 00.2247 01.1108 1 1 0
05 5 68 9 0 1 2 4 -1 0 -1 1 1 2 01.5056 00.2094 00.1363 1 0 0
05 5 69 48 0 1 1 4 +1 1 -1 2 NaN NaN 00.7331 00.0000 00.0000 0 NaN NaN
05 5 70 8 0 1 1 1 -1 0 +1 2 NaN NaN 00.6645 00.0000 00.0000 0 NaN NaN
05 5 71 17 0 1 1 1 -1 1 -1 1 2 1 01.8464 00.1682 00.1444 1 0 1
05 5 72 45 0 1 1 3 +1 0 -1 1 1 2 01.9724 00.1294 00.1711 1 1 1
05 5 73 3 0 1 2 3 -1 0 +1 2 NaN NaN 01.4223 00.0000 00.0000 0 NaN NaN
05 5 74 20 0 1 1 4 -1 1 +1 1 1 1 01.3566 00.2105 00.9055 1 1 1
05 5 75 37 1 0 0 0 +0 0 +0 2 NaN NaN 01.8541 00.0000 00.0000 1 NaN NaN
05 5 76 16 0 1 1 1 +1 0 -1 1 1 2 01.5143 00.1539 00.1308 1 1 1
05 5 77 1 0 1 2 1 -1 1 -1 2 NaN NaN 00.8076 00.0000 00.0000 0 NaN NaN
05 5 78 16 0 1 2 4 +1 1 +1 1 2 2 02.1918 00.1946 00.1226 1 1 1
05 5 79 41 0 1 1 1 -1 1 -1 1 1 2 01.6320 00.2650 00.1742 1 1 0
05 5 80 35 1 0 0 0 +0 0 +0 2 NaN NaN 00.7534 00.0000 00.0000 1 NaN NaN
05 6 01 40 1 0 0 0 +0 0 +0 2 NaN NaN 00.7444 00.0000 00.0000 1 NaN NaN
05 6 02 1 0 1 2 1 -1 1 -1 2 NaN NaN 00.5145 00.0000 00.0000 0 NaN NaN
05 6 03 11 0 1 1 3 +1 1 +1 1 1 1 01.0786 00.1524 00.2094 1 1 0
05 6 04 21 0 1 2 1 -1 1 -1 1 2 2 01.2020 00.7189 00.1123 1 1 0
05 6 05 45 0 1 1 3 +1 0 -1 1 1 2 02.1011 00.1721 00.0845 1 1 1
05 6 06 14 0 1 2 1 +1 1 +1 1 1 1 02.6667 00.3782 00.1694 1 0 0
05 6 07 23 0 1 1 1 -1 1 +1 1 1 1 02.1086 00.1640 00.1242 1 1 1
05 6 08 37 1 0 0 0 +0 0 +0 2 NaN NaN 00.9604 00.0000 00.0000 1 NaN NaN
05 6 09 39 0 1 1 1 +1 1 +1 2 NaN NaN 01.4262 00.0000 00.0000 0 NaN NaN
05 6 10 9 0 1 2 3 -1 1 -1 1 2 1 02.5764 00.1471 00.0933 1 1 1
05 6 11 24 1 0 0 0 +0 0 +0 1 2 2 03.6993 00.1515 00.1444 0 0 0
05 6 12 14 0 1 1 1 -1 0 -1 1 1 2 01.3325 00.1878 00.1474 1 1 0
05 6 13 12 0 1 2 1 +1 1 +1 1 1 2 01.8795 00.1520 00.1450 1 0 1
05 6 14 31 1 0 0 0 +0 0 +0 2 NaN NaN 00.9802 00.0000 00.0000 1 NaN NaN
05 6 15 1 0 1 2 1 -1 0 -1 1 2 1 03.0608 00.2912 00.1668 1 1 1
05 6 16 21 0 1 2 1 +1 0 -1 2 NaN NaN 01.3855 00.0000 00.0000 0 NaN NaN
05 6 17 39 0 1 2 1 +1 0 -1 2 NaN NaN 00.4732 00.0000 00.0000 0 NaN NaN
05 6 18 47 0 1 1 3 -1 0 +1 2 NaN NaN 00.5432 00.0000 00.0000 0 NaN NaN
05 6 19 15 0 1 2 1 +1 1 -1 2 NaN NaN 00.6418 00.0000 00.0000 0 NaN NaN
05 6 20 30 1 0 0 0 +0 0 +0 2 NaN NaN 00.5928 00.0000 00.0000 1 NaN NaN
05 6 21 40 1 0 0 0 +0 0 +0 2 NaN NaN 00.4020 00.0000 00.0000 1 NaN NaN
05 6 22 10 1 0 0 0 +0 0 +0 2 NaN NaN 00.3628 00.0000 00.0000 1 NaN NaN
05 6 23 32 0 1 2 4 -1 1 +1 2 NaN NaN 00.4373 00.0000 00.0000 0 NaN NaN
05 6 24 5 0 1 1 1 +1 0 -1 2 NaN NaN 00.3967 00.0000 00.0000 0 NaN NaN
05 6 25 44 1 0 0 0 +0 0 +0 2 NaN NaN 00.6776 00.0000 00.0000 1 NaN NaN
05 6 26 38 0 1 2 3 +1 0 +1 2 NaN NaN 00.4185 00.0000 00.0000 0 NaN NaN
05 6 27 26 0 1 1 3 +1 1 -1 2 NaN NaN 00.3953 00.0000 00.0000 0 NaN NaN
05 6 28 33 0 1 2 1 -1 0 -1 2 NaN NaN 00.4043 00.0000 00.0000 0 NaN NaN
05 6 29 34 0 1 2 1 -1 0 +1 2 NaN NaN 00.4612 00.0000 00.0000 0 NaN NaN
05 6 30 24 0 1 2 3 +1 0 -1 2 NaN NaN 00.4032 00.0000 00.0000 0 NaN NaN
05 6 31 41 0 1 2 4 +1 0 +1 2 NaN NaN 00.4927 00.0000 00.0000 0 NaN NaN
05 6 32 32 0 1 1 4 -1 0 +1 2 NaN NaN 00.3862 00.0000 00.0000 0 NaN NaN
05 6 33 48 0 1 1 4 +1 1 -1 2 NaN NaN 00.5245 00.0000 00.0000 0 NaN NaN
05 6 34 23 1 0 0 0 +0 0 +0 2 NaN NaN 08.8330 00.0000 00.0000 1 NaN NaN
05 6 35 27 0 1 1 3 +1 0 +1 1 1 2 01.2898 00.1628 00.1237 1 1 1
05 6 36 18 0 1 1 4 +1 0 -1 2 NaN NaN 02.1450 00.0000 00.0000 0 NaN NaN
05 6 37 17 0 1 1 1 -1 1 -1 1 2 1 01.9372 00.1916 00.2150 1 0 1
05 6 38 3 0 1 2 3 -1 0 +1 2 NaN NaN 01.3838 00.0000 00.0000 0 NaN NaN
05 6 39 8 0 1 2 4 +1 1 -1 2 NaN NaN 00.6155 00.0000 00.0000 0 NaN NaN
05 6 40 27 0 1 2 1 -1 1 +1 2 NaN NaN 00.5192 00.0000 00.0000 0 NaN NaN
05 6 41 8 0 1 1 1 -1 0 +1 2 NaN NaN 00.5552 00.0000 00.0000 0 NaN NaN
05 6 42 26 0 1 2 4 -1 0 +1 2 NaN NaN 00.4464 00.0000 00.0000 0 NaN NaN
05 6 43 16 0 1 2 4 +1 1 +1 1 2 2 01.6532 00.2073 00.1655 1 1 1
05 6 44 29 0 1 1 4 -1 0 -1 1 1 2 01.4648 00.1707 00.2106 1 1 0
05 6 45 7 1 0 0 0 +0 0 +0 2 NaN NaN 00.7715 00.0000 00.0000 1 NaN NaN
05 6 46 43 0 1 1 1 +1 0 +1 1 1 1 01.7575 00.1626 00.1400 1 1 0
05 6 47 15 1 0 0 0 +0 0 +0 2 NaN NaN 02.4319 00.0000 00.0000 1 NaN NaN
05 6 48 33 0 1 1 1 +1 1 -1 1 1 2 03.1556 00.1429 00.1358 1 1 1
05 6 49 13 0 1 2 1 +1 1 -1 2 NaN NaN 00.6679 00.0000 00.0000 0 NaN NaN
05 6 50 41 0 1 1 1 -1 1 -1 1 1 2 02.7462 00.1496 00.1267 1 1 0
05 6 51 4 0 1 2 1 +1 0 +1 2 NaN NaN 00.5306 00.0000 00.0000 0 NaN NaN
05 6 52 19 0 1 1 4 +1 1 +1 2 NaN NaN 00.5979 00.0000 00.0000 0 NaN NaN
05 6 53 45 1 0 0 0 +0 0 +0 1 2 2 02.5985 00.2167 01.4870 0 0 0
05 6 54 43 0 1 1 1 +1 1 +1 1 2 1 01.0823 00.2043 00.1632 1 0 0
05 6 55 34 1 0 0 0 +0 0 +0 2 NaN NaN 00.7745 00.0000 00.0000 1 NaN NaN
05 6 56 12 0 1 2 1 -1 0 +1 2 NaN NaN 00.5440 00.0000 00.0000 0 NaN NaN
05 6 57 3 0 1 1 1 -1 1 +1 2 NaN NaN 00.5946 00.0000 00.0000 0 NaN NaN
05 6 58 16 0 1 1 1 +1 0 -1 1 1 2 01.1871 00.1768 00.1044 1 1 1
05 6 59 44 0 1 2 3 -1 0 -1 1 1 1 00.9745 00.1492 00.1744 1 0 1
05 6 60 30 0 1 1 3 -1 1 -1 1 1 2 01.4883 00.1774 00.1050 1 1 0
05 6 61 47 1 0 0 0 +0 0 +0 2 NaN NaN 00.9585 00.0000 00.0000 1 NaN NaN
05 6 62 35 1 0 0 0 +0 0 +0 2 NaN NaN 00.5762 00.0000 00.0000 1 NaN NaN
05 6 63 19 0 1 1 1 -1 0 -1 1 1 1 01.2021 00.1592 00.1675 1 1 1
05 6 64 6 0 1 2 4 -1 1 -1 1 2 2 01.0668 00.2535 00.1462 1 1 0
05 6 65 31 0 1 2 1 +1 0 +1 2 NaN NaN 00.9341 00.0000 00.0000 0 NaN NaN
05 6 66 28 0 1 2 4 +1 0 -1 2 NaN NaN 00.5208 00.0000 00.0000 0 NaN NaN
05 6 67 17 0 1 1 1 -1 0 +1 2 NaN NaN 00.4129 00.0000 00.0000 0 NaN NaN
05 6 68 48 1 0 0 0 +0 0 +0 2 NaN NaN 00.4049 00.0000 00.0000 1 NaN NaN
05 6 69 46 0 1 1 3 -1 0 -1 2 NaN NaN 00.4459 00.0000 00.0000 0 NaN NaN
05 6 70 2 0 1 2 3 +1 1 -1 2 NaN NaN 02.0365 00.0000 00.0000 0 NaN NaN
05 6 71 42 0 1 1 4 +1 0 +1 2 NaN NaN 00.6330 00.0000 00.0000 0 NaN NaN
05 6 72 38 0 1 2 3 -1 1 +1 1 2 1 01.5280 00.1030 00.1622 1 1 1
05 6 73 36 0 1 2 1 -1 1 +1 1 1 2 01.3648 00.1389 00.1165 1 0 0
05 6 74 28 0 1 1 3 -1 1 +1 2 NaN NaN 00.7613 00.0000 00.0000 0 NaN NaN
05 6 75 2 0 1 1 1 +1 0 +1 1 1 1 03.2508 00.1698 00.2421 1 1 0
05 6 76 42 0 1 1 1 +1 1 -1 2 NaN NaN 02.1452 00.0000 00.0000 0 NaN NaN
05 6 77 9 0 1 2 4 -1 0 -1 2 NaN NaN 00.5288 00.0000 00.0000 0 NaN NaN
05 6 78 7 0 1 2 3 +1 1 +1 1 1 2 01.5561 00.1465 00.1555 1 0 1
05 6 79 25 0 1 1 4 -1 1 -1 2 NaN NaN 00.7348 00.0000 00.0000 0 NaN NaN
05 6 80 20 0 1 1 4 -1 1 +1 1 1 2 01.8177 00.1567 00.1498 1 1 0
