sub block trial obj foil exp maze DP turn attend pos resp1 resp2 resp3 RT1 RT2 RT3 correct1 correct2 correct3
Subject 08 -- attend furniture
08 1 01 26 0 1 1 1 +1 0 -1 2 NaN NaN 05.9071 00.0000 00.0000 0 NaN NaN
08 1 02 23 0 1 2 1 -1 0 +1 2 NaN NaN 03.3656 00.0000 00.0000 0 NaN NaN
08 1 03 32 0 1 2 4 -1 1 -1 1 1 1 01.5381 01.8891 00.6733 1 0 1
08 1 04 18 1 0 0 0 +0 0 +0 2 NaN NaN 04.8950 00.0000 00.0000 1 NaN NaN
08 1 05 46 0 1 1 1 -1 1 +1 1 1 2 01.2441 03.8789 01.3797 1 1 0
08 1 06 20 0 1 2 1 +1 0 -1 1 1 2 01.1878 01.6335 00.8762 1 0 1
08 1 07 44 0 1 1 1 -1 1 +1 2 NaN NaN 04.7054 00.0000 00.0000 0 NaN NaN
08 1 08 23 0 1 1 4 +1 1 +1 2 NaN NaN 01.0942 00.0000 00.0000 0 NaN NaN
08 1 09 42 0 1 1 4 -1 1 -1 2 NaN NaN 00.8823 00.0000 00.0000 0 NaN NaN
08 1 10 24 0 1 2 1 -1 1 -1 1 2 1 00.9676 00.5265 00.4554 1 1 1
08 1 11 27 0 1 2 1 +1 0 +1 2 NaN NaN 00.7028 00.0000 00.0000 0 NaN NaN
08 1 12 41 0 1 1 1 -1 0 -1 2 NaN NaN 00.7637 00.0000 00.0000 0 NaN NaN
08 1 13 3 1 0 0 0 +0 0 +0 2 NaN NaN 01.1254 00.0000 00.0000 1 NaN NaN
08 1 14 36 0 1 2 3 -1 1 +1 2 NaN NaN 00.7682 00.0000 00.0000 0 NaN NaN
08 1 15 27 1 0 0 0 +0 0 +0 1 2 2 01.2097 00.2940 00.4407 0 0 0
08 1 16 28 0 1 1 4 +1 1 -1 2 NaN NaN 01.4721 00.0000 00.0000 0 NaN NaN
08 1 17 30 0 1 2 1 -1 1 +1 1 2 1 00.6523 00.7844 00.5267 1 1 1
08 1 18 32 0 1 1 1 +1 0 +1 2 NaN NaN 00.9787 00.0000 00.0000 0 NaN NaN
08 1 19 13 0 1 1 3 -1 0 +1 1 2 2 00.6592 00.3427 00.3751 1 0 0
08 1 20 37 0 1 2 1 -1 1 -1 1 1 1 00.6574 01.6534 00.5117 1 0 1
08 1 21 45 0 1 2 1 +1 1 -1 1 2 2 00.7556 00.2104 00.2017 1 1 1
08 1 22 6 1 0 0 0 +0 0 +0 1 2 1 00.6029 00.1290 00.0908 0 0 0
08 1 23 41 0 1 1 3 +1 1 +1 1 2 1 00.3522 00.3208 00.2427 1 0 0
08 1 24 15 0 1 1 1 +1 0 -1 1 2 1 00.0341 00.2878 00.2273 1 0 0
08 1 25 22 0 1 2 4 -1 0 -1 1 2 2 00.0511 00.2244 00.2625 1 1 0
08 1 26 1 0 1 1 1 -1 0 -1 2 NaN NaN 00.4690 00.0000 00.0000 0 NaN NaN
08 1 27 35 0 1 1 1 -1 1 -1 2 NaN NaN 00.6839 00.0000 00.0000 0 NaN NaN
08 1 28 25 0 1 2 4 -1 0 +1 1 1 2 04.4888 04.1882 01.1480 1 0 0
08 1 29 34 0 1 1 4 -1 1 +1 2 NaN NaN 00.8535 00.0000 00.0000 0 NaN NaN
08 1 30 39 0 1 1 3 +1 0 +1 1 2 2 00.7802 00.5547 00.4026 1 0 1
08 1 31 11 1 0 0 0 +0 0 +0 2 NaN NaN 00.7324 00.0000 00.0000 1 NaN NaN
08 1 32 8 0 1 2 4 -1 1 +1 2 NaN NaN 00.7280 00.0000 00.0000 0 NaN NaN
08 1 33 12 0 1 2 3 -1 0 -1 1 1 1 00.6429 00.4070 00.2295 1 0 1
08 1 34 4 0 1 2 4 +1 0 -1 2 NaN NaN 00.5821 00.0000 00.0000 0 NaN NaN
08 1 35 31 1 0 0 0 +0 0 +0 1 2 2 00.5033 00.4657 00.3334 0 0 0
08 1 36 26 0 1 2 4 +1 1 +1 1 2 2 03.0496 01.0172 01.0859 1 1 1
08 1 37 34 1 0 0 0 +0 0 +0 2 NaN NaN 00.7140 00.0000 00.0000 1 NaN NaN
08 1 38 21 0 1 1 3 -1 1 -1 2 NaN NaN 00.5017 00.0000 00.0000 0 NaN NaN
08 1 39 18 0 1 1 1 +1 0 +1 1 1 1 00.5063 00.3886 00.3071 1 1 0
08 1 40 30 1 0 0 0 +0 0 +0 2 NaN NaN 00.4490 00.0000 00.0000 1 NaN NaN
08 1 41 39 0 1 2 1 +1 1 +1 1 2 2 00.4563 00.4528 00.6573 1 1 1
08 1 42 2 0 1 2 1 -1 0 +1 1 2 1 00.5437 00.3280 00.2173 1 1 1
08 1 43 38 1 0 0 0 +0 0 +0 2 NaN NaN 00.5224 00.0000 00.0000 1 NaN NaN
08 1 44 43 0 1 1 1 +1 1 -1 2 NaN NaN 00.5425 00.0000 00.0000 0 NaN NaN
08 1 45 42 0 1 2 1 -1 0 -1 2 NaN NaN 01.3451 00.0000 00.0000 0 NaN NaN
08 1 46 33 0 1 1 1 -1 0 +1 1 2 2 00.6268 01.7997 00.4274 1 0 0
08 1 47 46 0 1 2 3 +1 0 +1 2 NaN NaN 00.4989 00.0000 00.0000 0 NaN NaN
08 1 48 48 0 1 1 3 +1 0 -1 2 NaN NaN 00.5995 00.0000 00.0000 0 NaN NaN
08 1 49 48 0 1 2 1 +1 1 +1 2 NaN NaN 01.8006 00.0000 00.0000 0 NaN NaN
08 1 50 22 0 1 1 3 -1 1 +1 2 NaN NaN 00.7435 00.0000 00.0000 0 NaN NaN
08 1 51 16 0 1 1 1 -1 1 -1 2 NaN NaN 00.7858 00.0000 00.0000 0 NaN NaN
08 1 52 13 1 0 0 0 +0 0 +0 2 NaN NaN 00.6985 00.0000 00.0000 1 NaN NaN
08 1 53 15 0 1 2 3 +1 1 -1 2 NaN NaN 00.6956 00.0000 00.0000 0 NaN NaN
08 1 54 40 0 1 1 3 +1 1 -1 1 1 1 00.8519 00.4316 00.2047 1 1 0
08 1 55 29 0 1 2 1 +1 0 -1 1 1 1 00.5420 00.1823 00.1578 1 0 0
08 1 56 20 1 0 0 0 +0 0 +0 1 2 2 00.5925 00.1667 00.2389 0 0 0
08 1 57 11 0 1 1 1 +1 1 +1 1 2 1 00.5274 00.2483 00.1733 1 0 0
08 1 58 17 0 1 2 1 -1 0 -1 2 NaN NaN 00.2398 00.0000 00.0000 0 NaN NaN
08 1 59 29 0 1 1 1 +1 1 +1 2 NaN NaN 00.5278 00.0000 00.0000 0 NaN NaN
08 1 60 10 1 0 0 0 +0 0 +0 2 NaN NaN 00.7390 00.0000 00.0000 1 NaN NaN
08 1 61 19 0 1 1 4 +1 0 -1 2 NaN NaN 00.5901 00.0000 00.0000 0 NaN NaN
08 1 62 35 0 1 1 4 -1 0 +1 1 2 1 01.2791 00.9686 02.8154 1 0 1
08 1 63 24 0 1 2 1 +1 0 +1 2 NaN NaN 00.5155 00.0000 00.0000 0 NaN NaN
08 1 64 17 1 0 0 0 +0 0 +0 2 NaN NaN 00.7602 00.0000 00.0000 1 NaN NaN
08 1 65 6 0 1 2 1 -1 1 +1 2 NaN NaN 00.5464 00.0000 00.0000 0 NaN NaN
08 1 66 40 0 1 2 3 -1 0 +1 2 NaN NaN 00.6131 00.0000 00.0000 0 NaN NaN
08 1 67 3 0 1 2 4 +1 1 -1 2 NaN NaN 00.5655 00.0000 00.0000 0 NaN NaN
08 1 68 21 0 1 1 1 -1 0 +1 2 NaN NaN 00.6321 00.0000 00.0000 0 NaN NaN
08 1 69 38 1 0 0 0 +0 0 +0 2 NaN NaN 00.9359 00.0000 00.0000 1 NaN NaN
08 1 70 12 0 1 2 3 +1 1 +1 2 NaN NaN 00.6345 00.0000 00.0000 0 NaN NaN
08 1 71 7 0 1 1 1 +1 1 -1 1 2 2 01.1614 00.2320 00.5254 1 0 1
08 1 72 28 0 1 1 4 -1 0 -1 2 NaN NaN 00.7687 00.0000 00.0000 0 NaN NaN
08 1 73 44 0 1 1 3 -1 0 -1 2 NaN NaN 00.4583 00.0000 00.0000 0 NaN NaN
08 1 74 9 0 1 2 3 -1 1 -1 2 NaN NaN 00.3850 00.0000 00.0000 0 NaN NaN
08 1 75 45 0 1 2 4 +1 0 +1 1 2 2 00.4586 00.2302 00.2358 1 1 1
08 1 76 43 1 0 0 0 +0 0 +0 1 1 1 00.6523 00.3364 00.3058 0 0 0
08 1 77 4 0 1 2 1 +1 1 -1 2 NaN NaN 00.4948 00.0000 00.0000 0 NaN NaN
08 1 78 8 0 1 1 4 +1 0 +1 1 2 2 00.4035 00.2900 00.2294 1 0 1
08 1 79 37 0 1 2 3 +1 0 -1 1 2 1 00.5493 02.3015 00.6523 1 1 0
08 1 80 2 1 0 0 0 +0 0 +0 1 1 1 04.7794 00.4501 00.3674 0 0 0
08 2 01 12 0 1 2 3 -1 0 -1 1 1 1 00.2782 00.6820 00.3645 1 0 1
08 2 02 41 0 1 1 3 +1 1 +1 2 NaN NaN 03.8794 00.0000 00.0000 0 NaN NaN
08 2 03 16 0 1 1 1 -1 1 -1 2 NaN NaN 01.4229 00.0000 00.0000 0 NaN NaN
08 2 04 44 0 1 1 3 -1 0 -1 1 1 2 00.5732 01.6367 00.7197 1 1 0
08 2 05 11 0 1 1 1 +1 1 +1 2 NaN NaN 00.5398 00.0000 00.0000 0 NaN NaN
08 2 06 3 0 1 2 4 +1 1 -1 1 2 2 01.9512 00.4767 00.4717 1 1 1
08 2 07 20 0 1 2 1 +1 0 -1 1 1 2 01.3418 02.5332 00.7143 1 0 1
08 2 08 45 0 1 2 4 +1 0 +1 2 NaN NaN 00.9979 00.0000 00.0000 0 NaN NaN
08 2 09 3 1 0 0 0 +0 0 +0 1 1 2 00.5176 00.3513 00.3199 0 0 0
08 2 10 18 1 0 0 0 +0 0 +0 2 NaN NaN 00.5249 00.0000 00.0000 1 NaN NaN
08 2 11 37 0 1 2 3 +1 0 -1 1 2 1 00.4969 01.2113 01.1757 1 1 0
08 2 12 39 0 1 1 3 +1 0 +1 1 2 2 01.6163 01.4678 01.1016 1 0 1
08 2 13 46 0 1 2 3 +1 0 +1 1 2 2 01.8978 00.4414 00.2940 1 1 1
08 2 14 20 1 0 0 0 +0 0 +0 2 NaN NaN 00.5950 00.0000 00.0000 1 NaN NaN
08 2 15 17 0 1 2 1 -1 0 -1 2 NaN NaN 00.7555 00.0000 00.0000 0 NaN NaN
08 2 16 11 1 0 0 0 +0 0 +0 1 1 2 00.5902 00.4686 00.4483 0 0 0
08 2 17 18 0 1 1 1 +1 0 +1 1 2 1 00.4398 00.3081 00.1982 1 0 0
08 2 18 34 1 0 0 0 +0 0 +0 2 NaN NaN 00.3754 00.0000 00.0000 1 NaN NaN
08 2 19 15 0 1 2 3 +1 1 -1 1 2 1 00.4816 00.2367 00.2577 1 1 0
08 2 20 44 0 1 1 1 -1 1 +1 1 1 1 01.6334 00.7801 00.3307 1 1 1
08 2 21 4 0 1 2 1 +1 1 -1 2 NaN NaN 00.5183 00.0000 00.0000 0 NaN NaN
08 2 22 22 0 1 1 3 -1 1 +1 2 NaN NaN 00.5543 00.0000 00.0000 0 NaN NaN
08 2 23 1 0 1 1 1 -1 0 -1 2 NaN NaN 00.7169 00.0000 00.0000 0 NaN NaN
08 2 24 22 0 1 2 4 -1 0 -1 2 NaN NaN 00.7612 00.0000 00.0000 0 NaN NaN
08 2 25 31 1 0 0 0 +0 0 +0 2 NaN NaN 00.5472 00.0000 00.0000 1 NaN NaN
08 2 26 2 0 1 2 1 -1 0 +1 2 NaN NaN 00.5659 00.0000 00.0000 0 NaN NaN
08 2 27 30 1 0 0 0 +0 0 +0 1 1 2 00.6806 00.3151 00.4612 0 0 0
08 2 28 27 1 0 0 0 +0 0 +0 1 2 2 00.6113 00.2968 00.3635 0 0 0
08 2 29 32 0 1 1 1 +1 0 +1 1 1 2 00.4538 00.4021 00.3687 1 1 1
08 2 30 35 0 1 1 4 -1 0 +1 1 2 1 01.2596 03.4466 00.9172 1 0 1
08 2 31 37 0 1 2 1 -1 1 -1 1 1 2 01.3204 00.8005 00.7664 1 0 0
08 2 32 40 0 1 1 3 +1 1 -1 1 2 1 01.0797 00.5856 00.6405 1 0 0
08 2 33 42 0 1 2 1 -1 0 -1 2 NaN NaN 01.0242 00.0000 00.0000 0 NaN NaN
08 2 34 46 0 1 1 1 -1 1 +1 1 1 1 01.0393 00.8831 02.1255 1 1 1
08 2 35 42 0 1 1 4 -1 1 -1 1 2 2 00.6871 00.5139 00.4594 1 0 0
08 2 36 19 0 1 1 4 +1 0 -1 2 NaN NaN 01.1861 00.0000 00.0000 0 NaN NaN
08 2 37 33 0 1 1 1 -1 0 +1 2 NaN NaN 00.7308 00.0000 00.0000 0 NaN NaN
08 2 38 32 0 1 2 4 -1 1 -1 1 1 2 00.9499 00.4773 00.4563 1 0 0
08 2 39 6 0 1 2 1 -1 1 +1 2 NaN NaN 00.7511 00.0000 00.0000 0 NaN NaN
08 2 40 9 0 1 2 3 -1 1 -1 2 NaN NaN 00.5693 00.0000 00.0000 0 NaN NaN
08 2 41 48 0 1 2 1 +1 1 +1 1 2 2 00.6839 00.4945 00.4248 1 1 1
08 2 42 10 1 0 0 0 +0 0 +0 2 NaN NaN 00.5924 00.0000 00.0000 1 NaN NaN
08 2 43 41 0 1 1 1 -1 0 -1 1 1 1 00.4655 00.6054 00.3060 1 1 1
08 2 44 6 1 0 0 0 +0 0 +0 2 NaN NaN 00.7684 00.0000 00.0000 1 NaN NaN
08 2 45 4 0 1 2 4 +1 0 -1 2 NaN NaN 00.7786 00.0000 00.0000 0 NaN NaN
08 2 46 40 0 1 2 3 -1 0 +1 1 1 1 00.5795 00.5542 00.5452 1 0 1
08 2 47 43 0 1 1 1 +1 1 -1 1 2 1 01.3492 00.4119 00.2017 1 0 0
08 2 48 30 0 1 2 1 -1 1 +1 1 2 2 00.8114 00.6326 00.6215 1 1 0
08 2 49 28 0 1 1 4 -1 0 -1 1 1 1 00.6851 00.5118 00.4894 1 1 1
08 2 50 12 0 1 2 3 +1 1 +1 2 NaN NaN 00.6549 00.0000 00.0000 0 NaN NaN
08 2 51 17 1 0 0 0 +0 0 +0 2 NaN NaN 00.9733 00.0000 00.0000 1 NaN NaN
08 2 52 2 1 0 0 0 +0 0 +0 1 2 1 00.9585 00.4698 00.4976 0 0 0
08 2 53 8 0 1 2 4 -1 1 +1 2 NaN NaN 00.7424 00.0000 00.0000 0 NaN NaN
08 2 54 29 0 1 2 1 +1 0 -1 2 NaN NaN 00.5611 00.0000 00.0000 0 NaN NaN
08 2 55 27 0 1 2 1 +1 0 +1 1 2 2 00.5157 00.7494 00.5894 1 1 1
08 2 56 8 0 1 1 4 +1 0 +1 2 NaN NaN 00.4470 00.0000 00.0000 0 NaN NaN
08 2 57 23 0 1 1 4 +1 1 +1 1 1 2 00.8066 00.4996 00.2067 1 1 1
08 2 58 23 0 1 2 1 -1 0 +1 1 1 2 00.8486 01.1324 00.2041 1 0 0
08 2 59 13 1 0 0 0 +0 0 +0 2 NaN NaN 00.4613 00.0000 00.0000 1 NaN NaN
08 2 60 45 0 1 2 1 +1 1 -1 1 2 1 00.4835 00.5744 00.1493 1 1 0
08 2 61 26 0 1 2 4 +1 1 +1 2 NaN NaN 00.3768 00.0000 00.0000 0 NaN NaN
08 2 62 21 0 1 1 3 -1 1 -1 1 1 2 00.5463 00.2985 00.2691 1 1 0
08 2 63 24 0 1 2 1 -1 1 -1 2 NaN NaN 00.8596 00.0000 00.0000 0 NaN NaN
08 2 64 25 0 1 2 4 -1 0 +1 1 2 1 01.1530 02.1280 00.6146 1 1 1
08 2 65 15 0 1 1 1 +1 0 -1 2 NaN NaN 00.9830 00.0000 00.0000 0 NaN NaN
08 2 66 26 0 1 1 1 +1 0 -1 1 2 1 00.6641 00.4435 00.2321 1 0 0
08 2 67 48 0 1 1 3 +1 0 -1 2 NaN NaN 00.7278 00.0000 00.0000 0 NaN NaN
08 2 68 24 0 1 2 1 +1 0 +1 2 NaN NaN 00.6267 00.0000 00.0000 0 NaN NaN
08 2 69 43 1 0 0 0 +0 0 +0 2 NaN NaN 00.7698 00.0000 00.0000 1 NaN NaN
08 2 70 39 0 1 2 1 +1 1 +1 2 NaN NaN 01.8672 00.0000 00.0000 0 NaN NaN
08 2 71 34 0 1 1 4 -1 1 +1 1 2 2 00.5828 00.2056 00.4203 1 0 0
08 2 72 38 1 0 0 0 +0 0 +0 2 NaN NaN 01.0853 00.0000 00.0000 1 NaN NaN
08 2 73 21 0 1 1 1 -1 0 +1 1 2 1 00.5376 00.4345 00.1757 1 0 1
08 2 74 29 0 1 1 1 +1 1 +1 1 2 1 01.0261 00.0703 00.4187 1 0 0
08 2 75 28 0 1 1 4 +1 1 -1 1 2 1 01.1150 00.1715 00.2433 1 0 0
08 2 76 36 0 1 2 3 -1 1 +1 2 NaN NaN 00.5149 00.0000 00.0000 0 NaN NaN
08 2 77 35 0 1 1 1 -1 1 -1 1 2 1 00.8068 00.4686 00.0804 1 0 1
08 2 78 38 1 0 0 0 +0 0 +0 1 2 2 00.3745 01.1418 00.5495 0 0 0
08 2 79 13 0 1 1 3 -1 0 +1 1 2 1 00.7288 00.1854 00.4490 1 0 1
08 2 80 7 0 1 1 1 +1 1 -1 1 1 1 00.4558 00.6116 00.2817 1 1 0
08 3 01 12 0 1 2 3 +1 1 +1 1 2 1 01.9173 00.3004 00.4471 1 1 0
08 3 02 12 0 1 2 3 -1 0 -1 2 NaN NaN 00.4858 00.0000 00.0000 0 NaN NaN
08 3 03 45 0 1 2 4 +1 0 +1 2 NaN NaN 00.3318 00.0000 00.0000 0 NaN NaN
08 3 04 32 0 1 1 1 +1 0 +1 1 2 1 00.2157 00.2699 00.1939 1 0 0
08 3 05 13 0 1 1 3 -1 0 +1 1 1 2 00.2593 00.3272 00.2167 1 1 0
08 3 06 1 0 1 1 1 -1 0 -1 1 1 2 00.4098 00.3117 00.2017 1 1 0
08 3 07 41 0 1 1 1 -1 0 -1 1 2 1 00.2676 00.1758 00.1514 1 0 1
08 3 08 29 0 1 2 1 +1 0 -1 1 1 1 00.2348 00.2402 00.3572 1 0 0
08 3 09 18 0 1 1 1 +1 0 +1 1 1 1 00.2401 00.3094 00.1514 1 1 0
08 3 10 20 1 0 0 0 +0 0 +0 1 2 2 00.2356 00.1772 00.1529 0 0 0
08 3 11 16 0 1 1 1 -1 1 -1 1 2 2 00.2366 00.1784 00.2820 1 0 0
08 3 12 10 1 0 0 0 +0 0 +0 1 1 2 00.0877 00.3395 00.3408 0 0 0
08 3 13 34 0 1 1 4 -1 1 +1 2 NaN NaN 00.2244 00.0000 00.0000 0 NaN NaN
08 3 14 11 0 1 1 1 +1 1 +1 1 2 1 00.0970 00.2521 00.1290 1 0 0
08 3 15 19 0 1 1 4 +1 0 -1 1 2 1 01.3650 00.4431 00.3596 1 0 0
08 3 16 35 0 1 1 1 -1 1 -1 1 1 1 00.3058 00.3236 00.3258 1 1 1
08 3 17 8 0 1 2 4 -1 1 +1 1 1 2 00.7382 00.2902 00.2460 1 0 0
08 3 18 22 0 1 2 4 -1 0 -1 1 2 1 02.3893 01.4087 00.2611 1 1 1
08 3 19 41 0 1 1 3 +1 1 +1 2 NaN NaN 00.3398 00.0000 00.0000 0 NaN NaN
08 3 20 44 0 1 1 3 -1 0 -1 1 2 1 00.4314 00.4286 00.1377 1 0 1
08 3 21 21 0 1 1 1 -1 0 +1 1 1 2 00.2383 00.2426 00.2809 1 1 0
08 3 22 2 1 0 0 0 +0 0 +0 1 2 1 00.3905 00.5491 00.1414 0 0 0
08 3 23 17 0 1 2 1 -1 0 -1 1 1 2 00.3374 00.4347 00.1599 1 0 0
08 3 24 27 1 0 0 0 +0 0 +0 1 1 2 00.2591 00.3434 00.2800 0 0 0
08 3 25 28 0 1 1 4 +1 1 -1 1 2 1 00.1657 00.2700 00.3059 1 0 0
08 3 26 18 1 0 0 0 +0 0 +0 2 NaN NaN 00.2872 00.0000 00.0000 1 NaN NaN
08 3 27 28 0 1 1 4 -1 0 -1 2 NaN NaN 00.2850 00.0000 00.0000 0 NaN NaN
08 3 28 30 0 1 2 1 -1 1 +1 2 NaN NaN 00.2667 00.0000 00.0000 0 NaN NaN
08 3 29 29 0 1 1 1 +1 1 +1 1 2 1 00.2652 00.2694 00.2094 1 0 0
08 3 30 40 0 1 2 3 -1 0 +1 2 NaN NaN 00.4666 00.0000 00.0000 0 NaN NaN
08 3 31 36 0 1 2 3 -1 1 +1 2 NaN NaN 00.4573 00.0000 00.0000 0 NaN NaN
08 3 32 31 1 0 0 0 +0 0 +0 2 NaN NaN 00.5601 00.0000 00.0000 1 NaN NaN
08 3 33 23 0 1 2 1 -1 0 +1 2 NaN NaN 00.4347 00.0000 00.0000 0 NaN NaN
08 3 34 30 1 0 0 0 +0 0 +0 2 NaN NaN 00.4902 00.0000 00.0000 1 NaN NaN
08 3 35 2 0 1 2 1 -1 0 +1 2 NaN NaN 00.4318 00.0000 00.0000 0 NaN NaN
08 3 36 43 1 0 0 0 +0 0 +0 2 NaN NaN 00.6318 00.0000 00.0000 1 NaN NaN
08 3 37 32 0 1 2 4 -1 1 -1 1 1 2 00.6310 00.2997 00.2225 1 0 0
08 3 38 4 0 1 2 1 +1 1 -1 1 2 1 00.4317 00.2689 00.1770 1 1 0
08 3 39 45 0 1 2 1 +1 1 -1 1 2 1 01.1075 02.8847 00.4752 1 1 0
08 3 40 27 0 1 2 1 +1 0 +1 2 NaN NaN 01.2178 00.0000 00.0000 0 NaN NaN
08 3 41 37 0 1 2 1 -1 1 -1 2 NaN NaN 00.6005 00.0000 00.0000 0 NaN NaN
08 3 42 22 0 1 1 3 -1 1 +1 2 NaN NaN 00.5211 00.0000 00.0000 0 NaN NaN
08 3 43 48 0 1 2 1 +1 1 +1 2 NaN NaN 21.5177 00.0000 00.0000 0 NaN NaN
08 3 44 9 0 1 2 3 -1 1 -1 2 NaN NaN 01.2352 00.0000 00.0000 0 NaN NaN
08 3 45 34 1 0 0 0 +0 0 +0 1 2 2 00.5059 00.5789 00.1552 0 0 0
08 3 46 35 0 1 1 4 -1 0 +1 1 2 1 00.8310 00.4436 00.6320 1 0 1
08 3 47 38 1 0 0 0 +0 0 +0 2 NaN NaN 00.5190 00.0000 00.0000 1 NaN NaN
08 3 48 3 0 1 2 4 +1 1 -1 2 NaN NaN 00.7636 00.0000 00.0000 0 NaN NaN
08 3 49 15 0 1 1 1 +1 0 -1 2 NaN NaN 00.5338 00.0000 00.0000 0 NaN NaN
08 3 50 37 0 1 2 3 +1 0 -1 1 1 2 00.6653 01.2606 00.2309 1 0 1
08 3 51 39 0 1 2 1 +1 1 +1 2 NaN NaN 00.5672 00.0000 00.0000 0 NaN NaN
08 3 52 3 1 0 0 0 +0 0 +0 1 2 2 00.4892 00.2271 00.2498 0 0 0
08 3 53 13 1 0 0 0 +0 0 +0 2 NaN NaN 00.5056 00.0000 00.0000 1 NaN NaN
08 3 54 20 0 1 2 1 +1 0 -1 1 1 1 00.4782 02.0093 00.6608 1 0 0
08 3 55 44 0 1 1 1 -1 1 +1 2 NaN NaN 02.5625 00.0000 00.0000 0 NaN NaN
08 3 56 43 0 1 1 1 +1 1 -1 1 2 2 00.7210 00.4343 00.1597 1 0 1
08 3 57 26 0 1 2 4 +1 1 +1 1 1 2 01.0588 04.5816 00.2287 1 0 1
08 3 58 8 0 1 1 4 +1 0 +1 1 2 2 00.4052 00.1792 00.1874 1 0 1
08 3 59 38 1 0 0 0 +0 0 +0 2 NaN NaN 00.2219 00.0000 00.0000 1 NaN NaN
08 3 60 48 0 1 1 3 +1 0 -1 2 NaN NaN 00.5907 00.0000 00.0000 0 NaN NaN
08 3 61 4 0 1 2 4 +1 0 -1 2 NaN NaN 00.5438 00.0000 00.0000 0 NaN NaN
08 3 62 17 1 0 0 0 +0 0 +0 1 2 2 00.6749 00.1177 00.1921 0 0 0
08 3 63 6 0 1 2 1 -1 1 +1 2 NaN NaN 00.3540 00.0000 00.0000 0 NaN NaN
08 3 64 24 0 1 2 1 +1 0 +1 1 2 1 00.0931 00.2641 00.2523 1 1 0
08 3 65 7 0 1 1 1 +1 1 -1 1 2 2 00.1554 00.2111 00.2026 1 0 1
08 3 66 24 0 1 2 1 -1 1 -1 2 NaN NaN 00.0760 00.0000 00.0000 0 NaN NaN
08 3 67 46 0 1 2 3 +1 0 +1 2 NaN NaN 00.4180 00.0000 00.0000 0 NaN NaN
08 3 68 42 0 1 2 1 -1 0 -1 2 NaN NaN 00.6822 00.0000 00.0000 0 NaN NaN
08 3 69 6 1 0 0 0 +0 0 +0 2 NaN NaN 00.6312 00.0000 00.0000 1 NaN NaN
08 3 70 42 0 1 1 4 -1 1 -1 1 2 2 00.4062 00.1967 00.2038 1 0 0
08 3 71 40 0 1 1 3 +1 1 -1 2 NaN NaN 00.3976 00.0000 00.0000 0 NaN NaN
08 3 72 33 0 1 1 1 -1 0 +1 1 2 2 00.4546 00.6431 00.6632 1 0 0
08 3 73 25 0 1 2 4 -1 0 +1 1 2 2 00.9807 00.7308 00.6034 1 1 0
08 3 74 26 0 1 1 1 +1 0 -1 1 2 2 00.6045 00.4986 00.2050 1 0 1
08 3 75 15 0 1 2 3 +1 1 -1 2 NaN NaN 00.4303 00.0000 00.0000 0 NaN NaN
08 3 76 23 0 1 1 4 +1 1 +1 1 2 1 00.5024 00.4008 00.1434 1 0 0
08 3 77 39 0 1 1 3 +1 0 +1 1 1 2 00.3867 01.1700 00.3682 1 1 1
08 3 78 46 0 1 1 1 -1 1 +1 1 1 1 01.1146 01.2592 00.6779 1 1 1
08 3 79 21 0 1 1 3 -1 1 -1 1 2 2 00.6909 03.3015 00.9865 1 0 0
08 3 80 11 1 0 0 0 +0 0 +0 2 NaN NaN 00.6036 00.0000 00.0000 1 NaN NaN
08 4 01 46 0 1 1 1 -1 1 +1 1 1 2 01.7279 01.0473 00.6665 1 1 0
08 4 02 4 0 1 2 1 +1 1 -1 2 NaN NaN 01.5123 00.0000 00.0000 0 NaN NaN
08 4 03 15 0 1 1 1 +1 0 -1 2 NaN NaN 00.8343 00.0000 00.0000 0 NaN NaN
08 4 04 12 0 1 2 3 +1 1 +1 1 2 2 00.7610 00.6002 00.5582 1 1 1
08 4 05 35 0 1 1 1 -1 1 -1 1 1 2 00.8008 00.5588 00.4542 1 1 0
08 4 06 22 0 1 1 3 -1 1 +1 2 NaN NaN 00.6535 00.0000 00.0000 0 NaN NaN
08 4 07 42 0 1 1 4 -1 1 -1 2 NaN NaN 00.5887 00.0000 00.0000 0 NaN NaN
08 4 08 25 0 1 2 4 -1 0 +1 1 2 2 00.6380 00.5458 01.5309 1 1 0
08 4 09 32 0 1 2 4 -1 1 -1 1 2 2 00.5804 00.2031 00.5299 1 1 0
08 4 10 6 1 0 0 0 +0 0 +0 1 2 2 00.4534 00.2572 00.1340 0 0 0
08 4 11 16 0 1 1 1 -1 1 -1 2 NaN NaN 00.4906 00.0000 00.0000 0 NaN NaN
08 4 12 15 0 1 2 3 +1 1 -1 2 NaN NaN 00.5760 00.0000 00.0000 0 NaN NaN
08 4 13 30 0 1 2 1 -1 1 +1 1 2 1 00.2731 01.7172 00.7485 1 1 1
08 4 14 45 0 1 2 4 +1 0 +1 2 NaN NaN 00.6467 00.0000 00.0000 0 NaN NaN
08 4 15 8 0 1 2 4 -1 1 +1 2 NaN NaN 00.9172 00.0000 00.0000 0 NaN NaN
08 4 16 43 1 0 0 0 +0 0 +0 1 1 2 01.3204 00.7685 00.2077 0 0 0
08 4 17 37 0 1 2 3 +1 0 -1 1 2 1 00.9130 01.3058 00.4666 1 1 0
08 4 18 3 0 1 2 4 +1 1 -1 2 NaN NaN 01.1132 00.0000 00.0000 0 NaN NaN
08 4 19 21 0 1 1 1 -1 0 +1 2 NaN NaN 00.6122 00.0000 00.0000 0 NaN NaN
08 4 20 44 0 1 1 1 -1 1 +1 1 2 2 00.5646 00.5722 00.7709 1 0 0
08 4 21 41 0 1 1 1 -1 0 -1 1 1 1 00.5572 00.3894 00.4366 1 1 1
08 4 22 18 0 1 1 1 +1 0 +1 2 NaN NaN 01.4048 00.0000 00.0000 0 NaN NaN
08 4 23 20 0 1 2 1 +1 0 -1 1 1 1 00.7319 01.9324 01.4987 1 0 0
08 4 24 22 0 1 2 4 -1 0 -1 2 NaN NaN 00.6300 00.0000 00.0000 0 NaN NaN
08 4 25 1 0 1 1 1 -1 0 -1 2 NaN NaN 00.5651 00.0000 00.0000 0 NaN NaN
08 4 26 30 1 0 0 0 +0 0 +0 1 2 2 00.6951 00.9211 00.2578 0 0 0
08 4 27 9 0 1 2 3 -1 1 -1 2 NaN NaN 01.3130 00.0000 00.0000 0 NaN NaN
08 4 28 17 1 0 0 0 +0 0 +0 2 NaN NaN 00.5795 00.0000 00.0000 1 NaN NaN
08 4 29 17 0 1 2 1 -1 0 -1 2 NaN NaN 00.6286 00.0000 00.0000 0 NaN NaN
08 4 30 28 0 1 1 4 +1 1 -1 2 NaN NaN 01.0597 00.0000 00.0000 0 NaN NaN
08 4 31 33 0 1 1 1 -1 0 +1 2 NaN NaN 00.5452 00.0000 00.0000 0 NaN NaN
08 4 32 48 0 1 1 3 +1 0 -1 2 NaN NaN 00.4039 00.0000 00.0000 0 NaN NaN
08 4 33 2 0 1 2 1 -1 0 +1 2 NaN NaN 00.4768 00.0000 00.0000 0 NaN NaN
08 4 34 40 0 1 1 3 +1 1 -1 1 2 2 01.2022 00.2231 00.4533 1 0 1
08 4 35 21 0 1 1 3 -1 1 -1 2 NaN NaN 00.4288 00.0000 00.0000 0 NaN NaN
08 4 36 4 0 1 2 4 +1 0 -1 1 1 2 00.5330 00.2220 00.1958 1 0 1
08 4 37 31 1 0 0 0 +0 0 +0 1 2 1 00.1180 00.1926 00.1676 0 0 0
08 4 38 39 0 1 2 1 +1 1 +1 1 2 1 00.3788 00.3781 00.6013 1 1 0
08 4 39 8 0 1 1 4 +1 0 +1 1 1 1 00.3784 00.3137 00.2038 1 1 0
08 4 40 6 0 1 2 1 -1 1 +1 2 NaN NaN 00.5256 00.0000 00.0000 0 NaN NaN
08 4 41 37 0 1 2 1 -1 1 -1 1 1 1 00.9456 00.8571 01.5728 1 0 1
08 4 42 27 0 1 2 1 +1 0 +1 2 NaN NaN 01.5014 00.0000 00.0000 0 NaN NaN
08 4 43 27 1 0 0 0 +0 0 +0 1 2 1 00.8888 00.2269 00.1847 0 0 0
08 4 44 34 0 1 1 4 -1 1 +1 1 1 2 01.5147 00.3463 00.3150 1 1 0
08 4 45 43 0 1 1 1 +1 1 -1 2 NaN NaN 00.4559 00.0000 00.0000 0 NaN NaN
08 4 46 19 0 1 1 4 +1 0 -1 2 NaN NaN 00.4308 00.0000 00.0000 0 NaN NaN
08 4 47 12 0 1 2 3 -1 0 -1 1 2 1 00.4229 00.3568 00.5335 1 1 1
08 4 48 11 0 1 1 1 +1 1 +1 1 2 2 00.9048 00.2262 00.1839 1 0 1
08 4 49 2 1 0 0 0 +0 0 +0 1 2 2 00.5217 00.3545 00.2279 0 0 0
08 4 50 23 0 1 1 4 +1 1 +1 1 2 2 00.4527 00.3690 00.3049 1 0 1
08 4 51 24 0 1 2 1 +1 0 +1 2 NaN NaN 00.4300 00.0000 00.0000 0 NaN NaN
08 4 52 18 1 0 0 0 +0 0 +0 2 NaN NaN 00.7260 00.0000 00.0000 1 NaN NaN
08 4 53 23 0 1 2 1 -1 0 +1 1 1 2 00.5618 00.5533 00.2412 1 0 0
08 4 54 26 0 1 1 1 +1 0 -1 2 NaN NaN 00.3534 00.0000 00.0000 0 NaN NaN
08 4 55 46 0 1 2 3 +1 0 +1 2 NaN NaN 00.2850 00.0000 00.0000 0 NaN NaN
08 4 56 45 0 1 2 1 +1 1 -1 2 NaN NaN 00.3634 00.0000 00.0000 0 NaN NaN
08 4 57 20 1 0 0 0 +0 0 +0 1 1 2 00.2945 00.2492 00.2220 0 0 0
08 4 58 3 1 0 0 0 +0 0 +0 1 2 1 00.0306 00.2044 00.1624 0 0 0
08 4 59 13 0 1 1 3 -1 0 +1 1 1 1 00.5987 00.2849 00.2404 1 1 1
08 4 60 29 0 1 2 1 +1 0 -1 2 NaN NaN 00.4161 00.0000 00.0000 0 NaN NaN
08 4 61 32 0 1 1 1 +1 0 +1 1 1 1 00.4409 00.6295 00.3783 1 1 0
08 4 62 11 1 0 0 0 +0 0 +0 2 NaN NaN 00.4038 00.0000 00.0000 1 NaN NaN
08 4 63 34 1 0 0 0 +0 0 +0 2 NaN NaN 00.5407 00.0000 00.0000 1 NaN NaN
08 4 64 38 1 0 0 0 +0 0 +0 2 NaN NaN 01.1358 00.0000 00.0000 1 NaN NaN
08 4 65 38 1 0 0 0 +0 0 +0 2 NaN NaN 00.4746 00.0000 00.0000 1 NaN NaN
08 4 66 7 0 1 1 1 +1 1 -1 2 NaN NaN 00.5129 00.0000 00.0000 0 NaN NaN
08 4 67 26 0 1 2 4 +1 1 +1 1 2 2 01.6368 00.7676 02.2068 1 1 1
08 4 68 10 1 0 0 0 +0 0 +0 2 NaN NaN 00.6849 00.0000 00.0000 1 NaN NaN
08 4 69 44 0 1 1 3 -1 0 -1 1 2 2 00.4419 00.5030 00.2733 1 0 0
08 4 70 41 0 1 1 3 +1 1 +1 2 NaN NaN 00.3838 00.0000 00.0000 0 NaN NaN
08 4 71 35 0 1 1 4 -1 0 +1 1 2 1 01.0334 00.5735 00.6923 1 0 1
08 4 72 24 0 1 2 1 -1 1 -1 2 NaN NaN 00.6085 00.0000 00.0000 0 NaN NaN
08 4 73 39 0 1 1 3 +1 0 +1 1 2 2 00.6410 00.6137 00.2032 1 0 1
08 4 74 36 0 1 2 3 -1 1 +1 2 NaN NaN 00.2370 00.0000 00.0000 0 NaN NaN
08 4 75 40 0 1 2 3 -1 0 +1 2 NaN NaN 00.7970 00.0000 00.0000 0 NaN NaN
08 4 76 42 0 1 2 1 -1 0 -1 2 NaN NaN 00.9812 00.0000 00.0000 0 NaN NaN
08 4 77 48 0 1 2 1 +1 1 +1 2 NaN NaN 00.8221 00.0000 00.0000 0 NaN NaN
08 4 78 13 1 0 0 0 +0 0 +0 1 2 2 00.7023 00.2722 00.2591 0 0 0
08 4 79 29 0 1 1 1 +1 1 +1 2 NaN NaN 00.7395 00.0000 00.0000 0 NaN NaN
08 4 80 28 0 1 1 4 -1 0 -1 2 NaN NaN 00.7671 00.0000 00.0000 0 NaN NaN
08 5 01 43 0 1 1 1 +1 1 -1 1 2 2 00.1267 00.6962 00.2664 1 0 1
08 5 02 8 0 1 1 4 +1 0 +1 2 NaN NaN 00.2968 00.0000 00.0000 0 NaN NaN
08 5 03 9 0 1 2 3 -1 1 -1 2 NaN NaN 00.1817 00.0000 00.0000 0 NaN NaN
08 5 04 26 0 1 2 4 +1 1 +1 1 2 1 00.3918 00.7104 00.3595 1 1 0
08 5 05 13 1 0 0 0 +0 0 +0 1 2 1 00.4344 00.3358 00.3370 0 0 0
08 5 06 6 1 0 0 0 +0 0 +0 2 NaN NaN 00.3486 00.0000 00.0000 1 NaN NaN
08 5 07 25 0 1 2 4 -1 0 +1 1 2 2 00.3115 03.5457 02.8047 1 1 0
08 5 08 17 1 0 0 0 +0 0 +0 2 NaN NaN 00.8891 00.0000 00.0000 1 NaN NaN
08 5 09 3 0 1 2 4 +1 1 -1 1 2 2 00.1096 00.3121 00.2341 1 1 1
08 5 10 13 0 1 1 3 -1 0 +1 2 NaN NaN 00.0266 00.0000 00.0000 0 NaN NaN
08 5 11 20 0 1 2 1 +1 0 -1 2 NaN NaN 00.2910 00.0000 00.0000 0 NaN NaN
08 5 12 24 0 1 2 1 -1 1 -1 1 2 1 00.0806 00.2204 00.1627 1 1 1
08 5 13 34 0 1 1 4 -1 1 +1 2 NaN NaN 00.0213 00.0000 00.0000 0 NaN NaN
08 5 14 15 0 1 2 3 +1 1 -1 1 2 1 00.2223 00.3553 00.3724 1 1 0
08 5 15 39 0 1 1 3 +1 0 +1 2 NaN NaN 00.5586 00.0000 00.0000 0 NaN NaN
08 5 16 40 0 1 1 3 +1 1 -1 2 NaN NaN 00.4172 00.0000 00.0000 0 NaN NaN
08 5 17 27 1 0 0 0 +0 0 +0 2 NaN NaN 00.4733 00.0000 00.0000 1 NaN NaN
08 5 18 1 0 1 1 1 -1 0 -1 2 NaN NaN 00.6076 00.0000 00.0000 0 NaN NaN
08 5 19 45 0 1 2 1 +1 1 -1 1 2 2 00.4159 00.2379 00.2593 1 1 1
08 5 20 21 0 1 1 1 -1 0 +1 2 NaN NaN 00.3864 00.0000 00.0000 0 NaN NaN
08 5 21 22 0 1 2 4 -1 0 -1 2 NaN NaN 00.5080 00.0000 00.0000 0 NaN NaN
08 5 22 34 1 0 0 0 +0 0 +0 2 NaN NaN 00.4159 00.0000 00.0000 1 NaN NaN
08 5 23 30 0 1 2 1 -1 1 +1 2 NaN NaN 00.3449 00.0000 00.0000 0 NaN NaN
08 5 24 43 1 0 0 0 +0 0 +0 2 NaN NaN 00.4039 00.0000 00.0000 1 NaN NaN
08 5 25 37 0 1 2 3 +1 0 -1 1 2 2 00.2847 01.1521 01.7754 1 1 1
08 5 26 44 0 1 1 3 -1 0 -1 2 NaN NaN 00.5908 00.0000 00.0000 0 NaN NaN
08 5 27 2 0 1 2 1 -1 0 +1 2 NaN NaN 00.5279 00.0000 00.0000 0 NaN NaN
08 5 28 4 0 1 2 4 +1 0 -1 2 NaN NaN 00.4514 00.0000 00.0000 0 NaN NaN
08 5 29 12 0 1 2 3 +1 1 +1 1 2 1 00.8899 00.2589 00.1844 1 1 0
08 5 30 29 0 1 2 1 +1 0 -1 1 2 2 00.2671 00.5113 00.5689 1 1 1
08 5 31 45 0 1 2 4 +1 0 +1 2 NaN NaN 00.4434 00.0000 00.0000 0 NaN NaN
08 5 32 27 0 1 2 1 +1 0 +1 1 1 1 00.4349 00.4001 00.3026 1 0 0
08 5 33 24 0 1 2 1 +1 0 +1 2 NaN NaN 00.3643 00.0000 00.0000 0 NaN NaN
08 5 34 48 0 1 2 1 +1 1 +1 1 2 2 00.2151 00.2536 00.2424 1 1 1
08 5 35 35 0 1 1 4 -1 0 +1 2 NaN NaN 00.1781 00.0000 00.0000 0 NaN NaN
08 5 36 39 0 1 2 1 +1 1 +1 1 1 1 00.1328 00.2866 00.2260 1 0 0
08 5 37 36 0 1 2 3 -1 1 +1 1 2 1 00.3224 00.2124 00.2188 1 1 1
08 5 38 4 0 1 2 1 +1 1 -1 1 2 2 00.7320 00.2046 00.2113 1 1 1
08 5 39 40 0 1 2 3 -1 0 +1 1 2 2 00.5167 00.4465 00.1709 1 1 0
08 5 40 3 1 0 0 0 +0 0 +0 2 NaN NaN 00.6216 00.0000 00.0000 1 NaN NaN
08 5 41 42 0 1 2 1 -1 0 -1 1 2 2 00.7653 00.2685 00.2566 1 1 0
08 5 42 23 0 1 2 1 -1 0 +1 2 NaN NaN 00.7523 00.0000 00.0000 0 NaN NaN
08 5 43 32 0 1 1 1 +1 0 +1 2 NaN NaN 00.5552 00.0000 00.0000 0 NaN NaN
08 5 44 11 1 0 0 0 +0 0 +0 1 1 2 00.8465 00.3782 00.1855 0 0 0
08 5 45 31 1 0 0 0 +0 0 +0 1 2 2 00.8435 00.4871 00.1782 0 0 0
08 5 46 46 0 1 1 1 -1 1 +1 1 2 1 00.8841 00.9904 00.6762 1 0 1
08 5 47 32 0 1 2 4 -1 1 -1 1 1 2 00.4021 00.3847 00.2559 1 0 0
08 5 48 28 0 1 1 4 -1 0 -1 2 NaN NaN 00.0791 00.0000 00.0000 0 NaN NaN
08 5 49 42 0 1 1 4 -1 1 -1 1 1 1 00.0052 00.3244 00.3898 1 1 1
08 5 50 41 0 1 1 1 -1 0 -1 1 2 2 00.2714 00.3711 00.3395 1 0 0
08 5 51 18 0 1 1 1 +1 0 +1 1 2 1 00.6711 00.5945 00.4087 1 0 0
08 5 52 18 1 0 0 0 +0 0 +0 1 2 2 00.8175 00.3666 00.2865 0 0 0
08 5 53 16 0 1 1 1 -1 1 -1 2 NaN NaN 00.8607 00.0000 00.0000 0 NaN NaN
08 5 54 35 0 1 1 1 -1 1 -1 2 NaN NaN 00.9629 00.0000 00.0000 0 NaN NaN
08 5 55 26 0 1 1 1 +1 0 -1 2 NaN NaN 00.8366 00.0000 00.0000 0 NaN NaN
08 5 56 22 0 1 1 3 -1 1 +1 2 NaN NaN 00.9400 00.0000 00.0000 0 NaN NaN
08 5 57 28 0 1 1 4 +1 1 -1 1 1 2 01.0226 00.3225 00.2452 1 1 1
08 5 58 10 1 0 0 0 +0 0 +0 2 NaN NaN 00.7246 00.0000 00.0000 1 NaN NaN
08 5 59 44 0 1 1 1 -1 1 +1 1 1 1 00.4800 00.3151 00.3332 1 1 1
08 5 60 8 0 1 2 4 -1 1 +1 2 NaN NaN 01.4328 00.0000 00.0000 0 NaN NaN
08 5 61 33 0 1 1 1 -1 0 +1 2 NaN NaN 00.6783 00.0000 00.0000 0 NaN NaN
08 5 62 19 0 1 1 4 +1 0 -1 2 NaN NaN 00.7873 00.0000 00.0000 0 NaN NaN
08 5 63 17 0 1 2 1 -1 0 -1 1 2 1 00.8608 00.4878 00.4816 1 1 1
08 5 64 29 0 1 1 1 +1 1 +1 2 NaN NaN 00.5529 00.0000 00.0000 0 NaN NaN
08 5 65 12 0 1 2 3 -1 0 -1 1 2 1 00.2361 00.1617 00.4899 1 1 1
08 5 66 21 0 1 1 3 -1 1 -1 1 2 2 00.3674 00.2394 03.2369 1 0 0
08 5 67 41 0 1 1 3 +1 1 +1 2 NaN NaN 00.7268 00.0000 00.0000 0 NaN NaN
08 5 68 46 0 1 2 3 +1 0 +1 2 NaN NaN 00.6258 00.0000 00.0000 0 NaN NaN
08 5 69 15 0 1 1 1 +1 0 -1 1 1 2 00.3535 00.2257 00.1838 1 1 1
08 5 70 7 0 1 1 1 +1 1 -1 1 1 2 00.9857 00.1919 00.1827 1 1 1
08 5 71 23 0 1 1 4 +1 1 +1 1 1 2 01.2412 00.1808 00.1885 1 1 1
08 5 72 20 1 0 0 0 +0 0 +0 1 1 1 00.9112 00.6641 00.3156 0 0 0
08 5 73 30 1 0 0 0 +0 0 +0 2 NaN NaN 00.8404 00.0000 00.0000 1 NaN NaN
08 5 74 6 0 1 2 1 -1 1 +1 2 NaN NaN 00.7999 00.0000 00.0000 0 NaN NaN
08 5 75 11 0 1 1 1 +1 1 +1 1 1 1 00.7926 00.1826 00.1901 1 1 0
08 5 76 38 1 0 0 0 +0 0 +0 1 2 1 00.3839 00.1112 00.0897 0 0 0
08 5 77 48 0 1 1 3 +1 0 -1 2 NaN NaN 00.3518 00.0000 00.0000 0 NaN NaN
08 5 78 37 0 1 2 1 -1 1 -1 1 1 1 00.1708 00.4350 01.0243 1 0 1
08 5 79 2 1 0 0 0 +0 0 +0 2 NaN NaN 00.7672 00.0000 00.0000 1 NaN NaN
08 5 80 38 1 0 0 0 +0 0 +0 1 1 2 00.5367 00.2897 00.6130 0 0 0
08 6 01 3 0 1 2 4 +1 1 -1 1 2 2 00.3216 00.4525 00.4809 1 1 1
08 6 02 45 0 1 2 1 +1 1 -1 2 NaN NaN 00.2784 00.0000 00.0000 0 NaN NaN
08 6 03 37 0 1 2 3 +1 0 -1 2 NaN NaN 00.3241 00.0000 00.0000 0 NaN NaN
08 6 04 45 0 1 2 4 +1 0 +1 1 1 2 00.2571 00.2133 00.1876 1 0 1
08 6 05 27 0 1 2 1 +1 0 +1 2 NaN NaN 00.1901 00.0000 00.0000 0 NaN NaN
08 6 06 11 1 0 0 0 +0 0 +0 2 NaN NaN 00.2722 00.0000 00.0000 1 NaN NaN
08 6 07 3 1 0 0 0 +0 0 +0 2 NaN NaN 00.3026 00.0000 00.0000 1 NaN NaN
08 6 08 4 0 1 2 1 +1 1 -1 2 NaN NaN 00.3802 00.0000 00.0000 0 NaN NaN
08 6 09 48 0 1 2 1 +1 1 +1 1 1 2 00.3099 00.2160 00.1583 1 0 1
08 6 10 9 0 1 2 3 -1 1 -1 2 NaN NaN 00.4816 00.0000 00.0000 0 NaN NaN
08 6 11 15 0 1 1 1 +1 0 -1 2 NaN NaN 00.7756 00.0000 00.0000 0 NaN NaN
08 6 12 44 0 1 1 3 -1 0 -1 2 NaN NaN 00.6891 00.0000 00.0000 0 NaN NaN
08 6 13 1 0 1 1 1 -1 0 -1 2 NaN NaN 00.6861 00.0000 00.0000 0 NaN NaN
08 6 14 30 1 0 0 0 +0 0 +0 1 1 2 00.4917 00.1981 00.2370 0 0 0
08 6 15 46 0 1 1 1 -1 1 +1 1 1 1 02.6049 01.0552 00.7544 1 1 1
08 6 16 18 1 0 0 0 +0 0 +0 2 NaN NaN 00.7006 00.0000 00.0000 1 NaN NaN
08 6 17 2 1 0 0 0 +0 0 +0 2 NaN NaN 00.3450 00.0000 00.0000 1 NaN NaN
08 6 18 7 0 1 1 1 +1 1 -1 2 NaN NaN 00.3720 00.0000 00.0000 0 NaN NaN
08 6 19 36 0 1 2 3 -1 1 +1 1 1 1 00.2062 00.3411 00.2139 1 0 1
08 6 20 17 0 1 2 1 -1 0 -1 2 NaN NaN 00.5183 00.0000 00.0000 0 NaN NaN
08 6 21 43 1 0 0 0 +0 0 +0 2 NaN NaN 00.4902 00.0000 00.0000 1 NaN NaN
08 6 22 38 1 0 0 0 +0 0 +0 1 2 2 00.6077 00.2617 00.4738 0 0 0
08 6 23 29 0 1 2 1 +1 0 -1 1 2 2 00.3679 00.4158 00.2378 1 1 1
08 6 24 13 1 0 0 0 +0 0 +0 2 NaN NaN 00.1576 00.0000 00.0000 1 NaN NaN
08 6 25 33 0 1 1 1 -1 0 +1 1 1 2 00.1444 00.2013 00.2243 1 1 0
08 6 26 39 0 1 2 1 +1 1 +1 1 2 2 00.3528 00.1775 00.3449 1 1 1
08 6 27 25 0 1 2 4 -1 0 +1 2 NaN NaN 00.1160 00.0000 00.0000 0 NaN NaN
08 6 28 15 0 1 2 3 +1 1 -1 2 NaN NaN 00.3773 00.0000 00.0000 0 NaN NaN
08 6 29 48 0 1 1 3 +1 0 -1 2 NaN NaN 00.7230 00.0000 00.0000 0 NaN NaN
08 6 30 12 0 1 2 3 -1 0 -1 1 1 1 00.4627 00.2664 00.2704 1 0 1
08 6 31 8 0 1 1 4 +1 0 +1 2 NaN NaN 00.4610 00.0000 00.0000 0 NaN NaN
08 6 32 43 0 1 1 1 +1 1 -1 2 NaN NaN 00.3229 00.0000 00.0000 0 NaN NaN
08 6 33 46 0 1 2 3 +1 0 +1 2 NaN NaN 07.1673 00.0000 00.0000 0 NaN NaN
08 6 34 11 0 1 1 1 +1 1 +1 1 1 2 00.6851 00.3038 00.2106 1 1 1
08 6 35 26 0 1 1 1 +1 0 -1 2 NaN NaN 00.8038 00.0000 00.0000 0 NaN NaN
08 6 36 23 0 1 2 1 -1 0 +1 2 NaN NaN 00.8607 00.0000 00.0000 0 NaN NaN
08 6 37 22 0 1 1 3 -1 1 +1 1 2 1 00.8180 00.2549 00.2268 1 0 1
08 6 38 37 0 1 2 1 -1 1 -1 2 NaN NaN 01.2683 00.0000 00.0000 0 NaN NaN
08 6 39 32 0 1 1 1 +1 0 +1 2 NaN NaN 02.2808 00.0000 00.0000 0 NaN NaN
08 6 40 17 1 0 0 0 +0 0 +0 1 1 2 01.1228 00.3073 00.2938 0 0 0
08 6 41 21 0 1 1 3 -1 1 -1 2 NaN NaN 03.6350 00.0000 00.0000 0 NaN NaN
08 6 42 21 0 1 1 1 -1 0 +1 2 NaN NaN 00.3884 00.0000 00.0000 0 NaN NaN
08 6 43 40 0 1 1 3 +1 1 -1 2 NaN NaN 00.6219 00.0000 00.0000 0 NaN NaN
08 6 44 19 0 1 1 4 +1 0 -1 1 2 1 00.3657 00.2216 00.4027 1 0 0
08 6 45 28 0 1 1 4 +1 1 -1 2 NaN NaN 00.7007 00.0000 00.0000 0 NaN NaN
08 6 46 42 0 1 1 4 -1 1 -1 2 NaN NaN 00.8730 00.0000 00.0000 0 NaN NaN
08 6 47 4 0 1 2 4 +1 0 -1 1 1 1 00.5110 00.1847 00.4803 1 0 0
08 6 48 20 1 0 0 0 +0 0 +0 2 NaN NaN 00.2938 00.0000 00.0000 1 NaN NaN
08 6 49 40 0 1 2 3 -1 0 +1 1 2 1 00.2748 00.3268 00.1682 1 1 1
08 6 50 28 0 1 1 4 -1 0 -1 2 NaN NaN 00.1549 00.0000 00.0000 0 NaN NaN
08 6 51 34 0 1 1 4 -1 1 +1 1 2 2 00.2542 00.4660 00.2228 1 0 0
08 6 52 22 0 1 2 4 -1 0 -1 1 2 2 00.0953 00.1864 00.3220 1 1 0
08 6 53 18 0 1 1 1 +1 0 +1 1 2 2 00.0464 00.1717 00.1634 1 0 1
08 6 54 34 1 0 0 0 +0 0 +0 1 2 2 00.0066 00.1659 00.1581 0 0 0
08 6 55 35 0 1 1 4 -1 0 +1 2 NaN NaN 00.3382 00.0000 00.0000 0 NaN NaN
08 6 56 42 0 1 2 1 -1 0 -1 1 1 2 00.1899 00.7888 00.3707 1 0 0
08 6 57 8 0 1 2 4 -1 1 +1 1 2 2 00.4776 00.2966 00.2353 1 1 0
08 6 58 6 1 0 0 0 +0 0 +0 2 NaN NaN 00.4112 00.0000 00.0000 1 NaN NaN
08 6 59 38 1 0 0 0 +0 0 +0 2 NaN NaN 00.5313 00.0000 00.0000 1 NaN NaN
08 6 60 24 0 1 2 1 -1 1 -1 2 NaN NaN 00.4707 00.0000 00.0000 0 NaN NaN
08 6 61 32 0 1 2 4 -1 1 -1 1 2 2 00.5733 00.4362 00.4814 1 1 0
08 6 62 6 0 1 2 1 -1 1 +1 2 NaN NaN 00.5508 00.0000 00.0000 0 NaN NaN
08 6 63 29 0 1 1 1 +1 1 +1 2 NaN NaN 00.4739 00.0000 00.0000 0 NaN NaN
08 6 64 30 0 1 2 1 -1 1 +1 1 2 1 00.5920 00.3263 00.2956 1 1 1
08 6 65 10 1 0 0 0 +0 0 +0 2 NaN NaN 00.5486 00.0000 00.0000 1 NaN NaN
08 6 66 24 0 1 2 1 +1 0 +1 2 NaN NaN 00.4071 00.0000 00.0000 0 NaN NaN
08 6 67 35 0 1 1 1 -1 1 -1 1 1 2 03.1840 00.4260 00.2631 1 1 0
08 6 68 41 0 1 1 1 -1 0 -1 2 NaN NaN 00.4536 00.0000 00.0000 0 NaN NaN
08 6 69 23 0 1 1 4 +1 1 +1 2 NaN NaN 00.6049 00.0000 00.0000 0 NaN NaN
08 6 70 20 0 1 2 1 +1 0 -1 1 1 2 00.2854 00.7524 00.2568 1 0 1
08 6 71 39 0 1 1 3 +1 0 +1 2 NaN NaN 02.6079 00.0000 00.0000 0 NaN NaN
08 6 72 12 0 1 2 3 +1 1 +1 1 1 1 00.3478 00.3324 00.2218 1 0 0
08 6 73 31 1 0 0 0 +0 0 +0 1 1 2 00.3184 00.4804 00.2994 0 0 0
08 6 74 2 0 1 2 1 -1 0 +1 1 2 1 00.1210 00.3383 00.2289 1 1 1
08 6 75 27 1 0 0 0 +0 0 +0 1 2 2 00.0854 00.3213 00.2273 0 0 0
08 6 76 41 0 1 1 3 +1 1 +1 2 NaN NaN 00.3712 00.0000 00.0000 0 NaN NaN
08 6 77 13 0 1 1 3 -1 0 +1 2 NaN NaN 00.1415 00.0000 00.0000 0 NaN NaN
08 6 78 26 0 1 2 4 +1 1 +1 1 1 2 00.3215 00.2904 00.3108 1 0 1
08 6 79 44 0 1 1 1 -1 1 +1 2 NaN NaN 00.2118 00.0000 00.0000 0 NaN NaN
08 6 80 16 0 1 1 1 -1 1 -1 1 1 1 00.1805 00.3642 00.1881 1 1 1
