sub block trial obj foil exp maze DP turn attend pos resp1 resp2 resp3 RT1 RT2 RT3 correct1 correct2 correct3
Subject 02 -- attend furniture
02 1 01 5 0 1 1 1 +1 1 -1 1 1 2 06.7641 05.4228 03.3550 1 1 1
02 1 02 15 0 1 2 1 +1 0 -1 2 NaN NaN 03.9558 00.0000 00.0000 0 NaN NaN
02 1 03 4 0 1 2 1 -1 0 -1 1 2 1 02.1520 01.1010 00.9585 1 1 1
02 1 04 38 0 1 2 1 +1 0 -1 1 2 1 01.6648 01.4343 01.0854 1 1 0
02 1 05 26 0 1 2 3 +1 1 +1 1 1 2 04.7296 00.8511 01.0870 1 0 1
02 1 06 37 0 1 1 1 -1 1 -1 1 2 1 01.8197 00.7989 01.4527 1 0 1
02 1 07 4 0 1 1 1 +1 1 -1 1 1 2 01.4342 00.6535 01.1695 1 1 1
02 1 08 28 0 1 2 1 -1 1 +1 1 2 1 01.3863 00.6876 00.9303 1 1 1
02 1 09 35 0 1 2 1 +1 0 +1 1 2 1 01.1733 00.9623 02.8906 1 1 0
02 1 10 27 1 0 0 0 +0 0 +0 1 2 1 01.5160 02.6677 00.9231 0 0 0
02 1 11 6 0 1 1 1 -1 1 +1 1 1 2 01.8705 00.3035 00.7863 1 1 0
02 1 12 19 1 0 0 0 +0 0 +0 2 NaN NaN 01.4356 00.0000 00.0000 1 NaN NaN
02 1 13 25 1 0 0 0 +0 0 +0 2 NaN NaN 01.3853 00.0000 00.0000 1 NaN NaN
02 1 14 20 1 0 0 0 +0 0 +0 2 NaN NaN 01.1295 00.0000 00.0000 1 NaN NaN
02 1 15 45 0 1 1 4 +1 0 -1 1 1 2 01.2357 01.2153 01.8515 1 1 1
02 1 16 14 1 0 0 0 +0 0 +0 2 NaN NaN 02.6002 00.0000 00.0000 1 NaN NaN
02 1 17 13 0 1 1 1 +1 0 -1 2 NaN NaN 01.1090 00.0000 00.0000 0 NaN NaN
02 1 18 20 0 1 2 3 -1 0 +1 2 NaN NaN 02.4325 00.0000 00.0000 0 NaN NaN
02 1 19 29 1 0 0 0 +0 0 +0 2 NaN NaN 01.1081 00.0000 00.0000 1 NaN NaN
02 1 20 46 0 1 1 1 -1 0 +1 1 1 2 01.1837 00.6374 00.7541 1 1 0
02 1 21 44 1 0 0 0 +0 0 +0 2 NaN NaN 02.2850 00.0000 00.0000 1 NaN NaN
02 1 22 35 0 1 1 4 -1 1 -1 1 1 1 01.0636 00.4582 00.6785 1 1 1
02 1 23 10 0 1 2 1 -1 1 -1 2 NaN NaN 01.6676 00.0000 00.0000 0 NaN NaN
02 1 24 29 1 0 0 0 +0 0 +0 2 NaN NaN 04.4880 00.0000 00.0000 1 NaN NaN
02 1 25 22 0 1 2 4 +1 0 +1 2 NaN NaN 02.3258 00.0000 00.0000 0 NaN NaN
02 1 26 41 0 1 1 1 -1 1 +1 2 NaN NaN 01.1503 00.0000 00.0000 0 NaN NaN
02 1 27 18 0 1 1 1 +1 0 -1 2 NaN NaN 02.7117 00.0000 00.0000 0 NaN NaN
02 1 28 36 1 0 0 0 +0 0 +0 2 NaN NaN 00.9442 00.0000 00.0000 1 NaN NaN
02 1 29 31 0 1 1 3 +1 0 +1 2 NaN NaN 01.6186 00.0000 00.0000 0 NaN NaN
02 1 30 47 0 1 2 3 -1 1 +1 1 2 1 01.2411 01.8442 00.9665 1 1 1
02 1 31 30 0 1 2 1 +1 1 +1 2 NaN NaN 02.7443 00.0000 00.0000 0 NaN NaN
02 1 32 32 0 1 2 4 -1 1 +1 2 NaN NaN 01.7113 00.0000 00.0000 0 NaN NaN
02 1 33 42 0 1 2 1 -1 0 +1 2 NaN NaN 03.8577 00.0000 00.0000 0 NaN NaN
02 1 34 2 1 0 0 0 +0 0 +0 1 2 1 02.4265 01.3005 00.9096 0 0 0
02 1 35 2 1 0 0 0 +0 0 +0 2 NaN NaN 00.9927 00.0000 00.0000 1 NaN NaN
02 1 36 48 0 1 1 3 -1 0 -1 1 1 1 02.0812 00.8410 02.0694 1 1 1
02 1 37 10 0 1 1 1 +1 0 +1 1 1 2 01.2723 00.4028 00.8332 1 1 1
02 1 38 33 0 1 1 4 -1 1 +1 1 2 1 02.8085 00.8826 00.9088 1 0 1
02 1 39 40 0 1 1 4 +1 1 +1 2 NaN NaN 02.0967 00.0000 00.0000 0 NaN NaN
02 1 40 25 0 1 1 3 +1 1 -1 2 NaN NaN 01.6342 00.0000 00.0000 0 NaN NaN
02 1 41 15 1 0 0 0 +0 0 +0 2 NaN NaN 01.6873 00.0000 00.0000 1 NaN NaN
02 1 42 19 0 1 2 4 +1 0 -1 1 2 1 00.9864 01.8885 00.9449 1 1 0
02 1 43 41 0 1 1 4 +1 0 +1 1 2 2 01.4267 00.5820 01.3088 1 0 1
02 1 44 11 0 1 2 4 -1 0 -1 1 1 1 02.7200 00.3653 01.2613 1 0 1
02 1 45 47 0 1 2 3 +1 0 -1 2 NaN NaN 02.0025 00.0000 00.0000 0 NaN NaN
02 1 46 48 0 1 1 3 -1 1 -1 1 1 1 01.2089 00.3877 01.3158 1 1 1
02 1 47 5 0 1 2 3 -1 0 -1 1 2 1 02.1823 01.8339 02.2844 1 1 1
02 1 48 1 0 1 2 1 +1 1 -1 2 NaN NaN 01.8149 00.0000 00.0000 0 NaN NaN
02 1 49 28 0 1 1 1 -1 0 +1 2 NaN NaN 01.6045 00.0000 00.0000 0 NaN NaN
02 1 50 8 0 1 1 4 -1 0 +1 2 NaN NaN 02.9716 00.0000 00.0000 0 NaN NaN
02 1 51 17 0 1 2 1 -1 0 -1 1 2 1 02.5051 01.1676 00.7019 1 1 1
02 1 52 34 0 1 1 1 +1 1 +1 1 1 1 03.8507 02.3768 00.8193 1 1 0
02 1 53 45 0 1 1 3 +1 1 +1 1 1 2 01.0369 00.4969 00.6512 1 1 1
02 1 54 18 1 0 0 0 +0 0 +0 2 NaN NaN 01.6902 00.0000 00.0000 1 NaN NaN
02 1 55 24 0 1 1 4 +1 1 -1 1 1 1 03.3899 04.2236 01.2781 1 1 0
02 1 56 16 0 1 2 1 +1 1 +1 2 NaN NaN 02.8664 00.0000 00.0000 0 NaN NaN
02 1 57 36 0 1 1 3 -1 1 +1 2 NaN NaN 01.7801 00.0000 00.0000 0 NaN NaN
02 1 58 43 0 1 2 3 +1 0 +1 1 2 2 01.0429 01.9908 00.9789 1 1 1
02 1 59 46 0 1 2 1 +1 1 -1 1 2 2 01.2035 00.7044 02.0024 1 1 1
02 1 60 3 0 1 2 1 -1 0 +1 1 1 1 01.2728 03.8591 00.8170 1 0 1
02 1 61 30 1 0 0 0 +0 0 +0 2 NaN NaN 03.1290 00.0000 00.0000 1 NaN NaN
02 1 62 21 0 1 2 4 +1 1 +1 1 2 1 01.1200 01.8565 02.1784 1 1 0
02 1 63 16 0 1 1 4 -1 0 -1 1 1 2 01.2164 01.3566 00.7393 1 1 0
02 1 64 33 0 1 1 3 -1 0 +1 1 1 2 01.0704 00.3848 00.6560 1 1 0
02 1 65 31 0 1 2 1 -1 1 +1 2 NaN NaN 01.0384 00.0000 00.0000 0 NaN NaN
02 1 66 7 0 1 2 1 -1 1 -1 2 NaN NaN 01.9808 00.0000 00.0000 0 NaN NaN
02 1 67 23 0 1 1 1 -1 1 -1 2 NaN NaN 01.1072 00.0000 00.0000 0 NaN NaN
02 1 68 32 0 1 2 4 -1 0 +1 1 1 1 01.1669 02.4131 01.3671 1 0 1
02 1 69 24 0 1 2 1 +1 0 +1 1 2 1 02.3756 00.4991 01.1179 1 1 0
02 1 70 39 0 1 1 1 -1 0 -1 2 NaN NaN 03.5134 00.0000 00.0000 0 NaN NaN
02 1 71 38 0 1 2 4 +1 1 -1 2 NaN NaN 01.1364 00.0000 00.0000 0 NaN NaN
02 1 72 9 0 1 2 4 -1 1 -1 2 NaN NaN 01.1470 00.0000 00.0000 0 NaN NaN
02 1 73 22 0 1 2 3 -1 1 -1 1 2 1 02.3406 00.9302 00.7304 1 1 1
02 1 74 27 0 1 1 3 +1 0 -1 1 1 2 03.2051 00.4463 01.0187 1 1 1
02 1 75 14 0 1 2 3 +1 1 -1 2 NaN NaN 01.8984 00.0000 00.0000 0 NaN NaN
02 1 76 11 0 1 1 1 +1 1 +1 2 NaN NaN 01.0610 00.0000 00.0000 0 NaN NaN
02 1 77 40 0 1 1 1 -1 0 -1 2 NaN NaN 02.8345 00.0000 00.0000 0 NaN NaN
02 1 78 21 1 0 0 0 +0 0 +0 2 NaN NaN 06.5982 00.0000 00.0000 1 NaN NaN
02 1 79 37 0 1 1 1 +1 0 +1 2 NaN NaN 03.4365 00.0000 00.0000 0 NaN NaN
02 1 80 9 1 0 0 0 +0 0 +0 2 NaN NaN 01.0783 00.0000 00.0000 1 NaN NaN
02 2 01 36 1 0 0 0 +0 0 +0 2 NaN NaN 02.1256 00.0000 00.0000 1 NaN NaN
02 2 02 8 0 1 1 4 -1 0 +1 2 NaN NaN 02.6544 00.0000 00.0000 0 NaN NaN
02 2 03 34 0 1 1 1 +1 1 +1 1 1 2 00.9696 02.5125 00.9508 1 1 1
02 2 04 46 0 1 2 1 +1 1 -1 1 2 2 02.9695 01.0843 02.0462 1 1 1
02 2 05 19 0 1 2 4 +1 0 -1 1 2 1 01.0105 02.9353 01.5796 1 1 0
02 2 06 48 0 1 1 3 -1 1 -1 1 1 2 01.4115 01.2075 01.1405 1 1 0
02 2 07 28 0 1 2 1 -1 1 +1 1 1 1 01.4386 01.3778 01.6552 1 0 1
02 2 08 4 0 1 1 1 +1 1 -1 1 1 2 01.6122 04.6319 00.7255 1 1 1
02 2 09 14 0 1 2 3 +1 1 -1 2 NaN NaN 01.2653 00.0000 00.0000 0 NaN NaN
02 2 10 43 0 1 2 3 +1 0 +1 2 NaN NaN 01.5104 00.0000 00.0000 0 NaN NaN
02 2 11 18 0 1 1 1 +1 0 -1 2 NaN NaN 03.3132 00.0000 00.0000 0 NaN NaN
02 2 12 21 0 1 2 4 +1 1 +1 1 2 1 01.1044 00.6896 01.4442 1 1 0
02 2 13 27 0 1 1 3 +1 0 -1 1 2 1 01.0096 02.2311 02.4409 1 0 0
02 2 14 37 0 1 1 1 +1 0 +1 2 NaN NaN 02.7330 00.0000 00.0000 0 NaN NaN
02 2 15 7 0 1 2 1 -1 1 -1 2 NaN NaN 04.1648 00.0000 00.0000 0 NaN NaN
02 2 16 5 0 1 1 1 +1 1 -1 1 1 1 01.3445 01.0792 01.2090 1 1 0
02 2 17 14 1 0 0 0 +0 0 +0 2 NaN NaN 02.8006 00.0000 00.0000 1 NaN NaN
02 2 18 2 1 0 0 0 +0 0 +0 2 NaN NaN 01.1247 00.0000 00.0000 1 NaN NaN
02 2 19 35 0 1 1 4 -1 1 -1 1 2 1 01.0394 00.6742 00.7742 1 0 1
02 2 20 15 0 1 2 1 +1 0 -1 1 2 2 04.8797 03.0590 02.0663 1 1 1
02 2 21 45 0 1 1 3 +1 1 +1 1 1 2 04.0858 00.3941 01.1126 1 1 1
02 2 22 15 1 0 0 0 +0 0 +0 2 NaN NaN 02.6435 00.0000 00.0000 1 NaN NaN
02 2 23 42 0 1 2 1 -1 0 +1 2 NaN NaN 03.4873 00.0000 00.0000 0 NaN NaN
02 2 24 26 0 1 2 3 +1 1 +1 2 NaN NaN 01.1111 00.0000 00.0000 0 NaN NaN
02 2 25 35 0 1 2 1 +1 0 +1 1 2 1 01.1058 03.9866 00.6673 1 1 0
02 2 26 29 1 0 0 0 +0 0 +0 2 NaN NaN 01.0684 00.0000 00.0000 1 NaN NaN
02 2 27 25 0 1 1 3 +1 1 -1 2 NaN NaN 01.9940 00.0000 00.0000 0 NaN NaN
02 2 28 4 0 1 2 1 -1 0 -1 1 2 1 06.5926 05.3558 00.9708 1 1 1
02 2 29 32 0 1 2 4 -1 1 +1 2 NaN NaN 01.1632 00.0000 00.0000 0 NaN NaN
02 2 30 32 0 1 2 4 -1 0 +1 1 1 1 01.0120 00.4567 01.2370 1 0 1
02 2 31 5 0 1 2 3 -1 0 -1 1 2 1 01.2276 00.5353 00.9122 1 1 1
02 2 32 44 1 0 0 0 +0 0 +0 2 NaN NaN 01.2681 00.0000 00.0000 1 NaN NaN
02 2 33 1 0 1 2 1 +1 1 -1 2 NaN NaN 00.8886 00.0000 00.0000 0 NaN NaN
02 2 34 48 0 1 1 3 -1 0 -1 1 1 1 01.1340 01.4379 02.3050 1 1 1
02 2 35 45 0 1 1 4 +1 0 -1 1 1 2 02.9869 00.3492 00.8778 1 1 1
02 2 36 16 0 1 2 1 +1 1 +1 2 NaN NaN 01.7630 00.0000 00.0000 0 NaN NaN
02 2 37 21 1 0 0 0 +0 0 +0 2 NaN NaN 02.2427 00.0000 00.0000 1 NaN NaN
02 2 38 33 0 1 1 3 -1 0 +1 1 1 2 06.5753 00.3953 00.4899 1 1 0
02 2 39 25 1 0 0 0 +0 0 +0 2 NaN NaN 01.4073 00.0000 00.0000 1 NaN NaN
02 2 40 46 0 1 1 1 -1 0 +1 1 1 2 01.1182 01.6146 00.9543 1 1 0
02 2 41 38 0 1 2 4 +1 1 -1 2 NaN NaN 01.5326 00.0000 00.0000 0 NaN NaN
02 2 42 41 0 1 1 4 +1 0 +1 2 NaN NaN 10.0380 00.0000 00.0000 0 NaN NaN
02 2 43 3 0 1 2 1 -1 0 +1 1 1 1 01.3084 00.4046 01.1071 1 0 1
02 2 44 2 1 0 0 0 +0 0 +0 2 NaN NaN 02.4145 00.0000 00.0000 1 NaN NaN
02 2 45 10 0 1 2 1 -1 1 -1 1 2 1 03.5395 02.5109 00.9813 1 1 1
02 2 46 40 0 1 1 1 -1 0 -1 1 1 2 02.0222 01.3132 00.9053 1 1 0
02 2 47 27 1 0 0 0 +0 0 +0 2 NaN NaN 00.9577 00.0000 00.0000 1 NaN NaN
02 2 48 18 1 0 0 0 +0 0 +0 2 NaN NaN 01.1676 00.0000 00.0000 1 NaN NaN
02 2 49 33 0 1 1 4 -1 1 +1 2 NaN NaN 00.7764 00.0000 00.0000 0 NaN NaN
02 2 50 47 0 1 2 3 +1 0 -1 2 NaN NaN 00.9771 00.0000 00.0000 0 NaN NaN
02 2 51 10 0 1 1 1 +1 0 +1 1 1 2 02.8342 00.5548 00.5950 1 1 1
02 2 52 17 0 1 2 1 -1 0 -1 2 NaN NaN 02.1641 00.0000 00.0000 0 NaN NaN
02 2 53 36 0 1 1 3 -1 1 +1 2 NaN NaN 01.3475 00.0000 00.0000 0 NaN NaN
02 2 54 47 0 1 2 3 -1 1 +1 1 2 1 04.6447 00.7058 00.6436 1 1 1
02 2 55 28 0 1 1 1 -1 0 +1 1 1 1 01.6827 02.7154 00.9369 1 1 1
02 2 56 39 0 1 1 1 -1 0 -1 1 1 2 01.0200 04.0968 00.4356 1 1 0
02 2 57 6 0 1 1 1 -1 1 +1 1 1 1 01.2450 00.7760 02.1025 1 1 1
02 2 58 20 1 0 0 0 +0 0 +0 2 NaN NaN 02.2160 00.0000 00.0000 1 NaN NaN
02 2 59 24 0 1 1 4 +1 1 -1 2 NaN NaN 00.8688 00.0000 00.0000 0 NaN NaN
02 2 60 38 0 1 2 1 +1 0 -1 1 2 1 01.0507 00.4621 01.1298 1 1 0
02 2 61 29 1 0 0 0 +0 0 +0 2 NaN NaN 01.7319 00.0000 00.0000 1 NaN NaN
02 2 62 40 0 1 1 4 +1 1 +1 2 NaN NaN 01.5249 00.0000 00.0000 0 NaN NaN
02 2 63 9 1 0 0 0 +0 0 +0 2 NaN NaN 01.0710 00.0000 00.0000 1 NaN NaN
02 2 64 20 0 1 2 3 -1 0 +1 2 NaN NaN 03.2604 00.0000 00.0000 0 NaN NaN
02 2 65 16 0 1 1 4 -1 0 -1 1 1 2 03.2940 01.1395 00.9313 1 1 0
02 2 66 11 0 1 1 1 +1 1 +1 2 NaN NaN 01.8625 00.0000 00.0000 0 NaN NaN
02 2 67 30 0 1 2 1 +1 1 +1 2 NaN NaN 00.7545 00.0000 00.0000 0 NaN NaN
02 2 68 22 0 1 2 3 -1 1 -1 1 2 1 01.0376 01.6335 01.0524 1 1 1
02 2 69 9 0 1 2 4 -1 1 -1 2 NaN NaN 01.3220 00.0000 00.0000 0 NaN NaN
02 2 70 30 1 0 0 0 +0 0 +0 2 NaN NaN 01.5965 00.0000 00.0000 1 NaN NaN
02 2 71 37 0 1 1 1 -1 1 -1 1 2 1 02.5310 00.4080 00.8379 1 0 1
02 2 72 11 0 1 2 4 -1 0 -1 2 NaN NaN 08.1245 00.0000 00.0000 0 NaN NaN
02 2 73 41 0 1 1 1 -1 1 +1 2 NaN NaN 00.8986 00.0000 00.0000 0 NaN NaN
02 2 74 23 0 1 1 1 -1 1 -1 2 NaN NaN 08.3112 00.0000 00.0000 0 NaN NaN
02 2 75 22 0 1 2 4 +1 0 +1 2 NaN NaN 03.1088 00.0000 00.0000 0 NaN NaN
02 2 76 19 1 0 0 0 +0 0 +0 2 NaN NaN 01.1971 00.0000 00.0000 1 NaN NaN
02 2 77 24 0 1 2 1 +1 0 +1 1 2 1 00.9332 00.6055 01.0432 1 1 0
02 2 78 31 0 1 1 3 +1 0 +1 1 1 2 01.0098 00.9032 00.9129 1 1 1
02 2 79 31 0 1 2 1 -1 1 +1 2 NaN NaN 05.3000 00.0000 00.0000 0 NaN NaN
02 2 80 13 0 1 1 1 +1 0 -1 1 2 1 01.3762 05.2700 01.1448 1 0 0
02 3 01 14 0 1 2 3 +1 1 -1 2 NaN NaN 01.9653 00.0000 00.0000 0 NaN NaN
02 3 02 9 1 0 0 0 +0 0 +0 2 NaN NaN 02.4365 00.0000 00.0000 1 NaN NaN
02 3 03 4 0 1 1 1 +1 1 -1 1 1 2 03.8328 01.0314 00.9075 1 1 1
02 3 04 35 0 1 2 1 +1 0 +1 1 2 1 01.0880 00.9779 00.8240 1 1 0
02 3 05 35 0 1 1 4 -1 1 -1 1 2 2 01.7434 01.1418 01.4298 1 0 0
02 3 06 27 0 1 1 3 +1 0 -1 1 1 2 01.0600 02.8545 00.9743 1 1 1
02 3 07 20 0 1 2 3 -1 0 +1 2 NaN NaN 01.2316 00.0000 00.0000 0 NaN NaN
02 3 08 29 1 0 0 0 +0 0 +0 2 NaN NaN 01.0300 00.0000 00.0000 1 NaN NaN
02 3 09 47 0 1 2 3 -1 1 +1 1 2 1 00.9645 00.9553 00.8347 1 1 1
02 3 10 29 1 0 0 0 +0 0 +0 2 NaN NaN 01.0179 00.0000 00.0000 1 NaN NaN
02 3 11 32 0 1 2 4 -1 1 +1 2 NaN NaN 00.8737 00.0000 00.0000 0 NaN NaN
02 3 12 28 0 1 1 1 -1 0 +1 2 NaN NaN 04.2077 00.0000 00.0000 0 NaN NaN
02 3 13 22 0 1 2 4 +1 0 +1 2 NaN NaN 00.9859 00.0000 00.0000 0 NaN NaN
02 3 14 5 0 1 1 1 +1 1 -1 1 1 1 04.5866 00.5856 00.8964 1 1 0
02 3 15 24 0 1 1 4 +1 1 -1 2 NaN NaN 02.2764 00.0000 00.0000 0 NaN NaN
02 3 16 48 0 1 1 3 -1 1 -1 1 2 1 02.1270 00.8054 00.8033 1 0 1
02 3 17 48 0 1 1 3 -1 0 -1 1 1 1 01.5794 01.7202 01.4716 1 1 1
02 3 18 39 0 1 1 1 -1 0 -1 1 2 1 01.1325 00.7963 00.6181 1 0 1
02 3 19 36 1 0 0 0 +0 0 +0 2 NaN NaN 01.1304 00.0000 00.0000 1 NaN NaN
02 3 20 46 0 1 1 1 -1 0 +1 1 2 2 01.5726 01.0584 01.3003 1 0 0
02 3 21 30 1 0 0 0 +0 0 +0 2 NaN NaN 05.5128 00.0000 00.0000 1 NaN NaN
02 3 22 11 0 1 2 4 -1 0 -1 2 NaN NaN 05.3237 00.0000 00.0000 0 NaN NaN
02 3 23 44 1 0 0 0 +0 0 +0 1 2 1 04.2945 02.3223 00.5604 0 0 0
02 3 24 16 0 1 2 1 +1 1 +1 2 NaN NaN 01.6190 00.0000 00.0000 0 NaN NaN
02 3 25 37 0 1 1 1 +1 0 +1 2 NaN NaN 03.9614 00.0000 00.0000 0 NaN NaN
02 3 26 10 0 1 2 1 -1 1 -1 1 2 1 01.4223 07.9702 00.9312 1 1 1
02 3 27 13 0 1 1 1 +1 0 -1 1 2 1 03.3186 00.6830 01.0377 1 0 0
02 3 28 20 1 0 0 0 +0 0 +0 2 NaN NaN 01.2758 00.0000 00.0000 1 NaN NaN
02 3 29 38 0 1 2 1 +1 0 -1 1 2 2 01.0243 01.5409 01.2511 1 1 1
02 3 30 6 0 1 1 1 -1 1 +1 1 1 1 02.1059 01.4894 00.9774 1 1 1
02 3 31 31 0 1 1 3 +1 0 +1 1 1 2 01.4434 00.6465 01.3068 1 1 1
02 3 32 24 0 1 2 1 +1 0 +1 1 2 1 01.5500 01.0842 00.9742 1 1 0
02 3 33 18 1 0 0 0 +0 0 +0 2 NaN NaN 01.1191 00.0000 00.0000 1 NaN NaN
02 3 34 27 1 0 0 0 +0 0 +0 2 NaN NaN 02.7627 00.0000 00.0000 1 NaN NaN
02 3 35 15 0 1 2 1 +1 0 -1 2 NaN NaN 01.4250 00.0000 00.0000 0 NaN NaN
02 3 36 34 0 1 1 1 +1 1 +1 1 1 2 01.0558 01.8590 00.8531 1 1 1
02 3 37 46 0 1 2 1 +1 1 -1 1 2 2 01.0837 08.6216 01.6518 1 1 1
02 3 38 16 0 1 1 4 -1 0 -1 1 1 1 01.2574 00.5483 01.2608 1 1 1
02 3 39 17 0 1 2 1 -1 0 -1 2 NaN NaN 02.7539 00.0000 00.0000 0 NaN NaN
02 3 40 21 1 0 0 0 +0 0 +0 2 NaN NaN 01.0489 00.0000 00.0000 1 NaN NaN
02 3 41 42 0 1 2 1 -1 0 +1 1 2 1 01.3991 03.4838 00.7291 1 1 1
02 3 42 1 0 1 2 1 +1 1 -1 2 NaN NaN 01.5880 00.0000 00.0000 0 NaN NaN
02 3 43 38 0 1 2 4 +1 1 -1 2 NaN NaN 01.1159 00.0000 00.0000 0 NaN NaN
02 3 44 2 1 0 0 0 +0 0 +0 1 2 1 03.2075 00.7206 00.6739 0 0 0
02 3 45 25 0 1 1 3 +1 1 -1 2 NaN NaN 09.4717 00.0000 00.0000 0 NaN NaN
02 3 46 31 0 1 2 1 -1 1 +1 2 NaN NaN 01.0531 00.0000 00.0000 0 NaN NaN
02 3 47 23 0 1 1 1 -1 1 -1 2 NaN NaN 01.6914 00.0000 00.0000 0 NaN NaN
02 3 48 8 0 1 1 4 -1 0 +1 2 NaN NaN 01.3584 00.0000 00.0000 0 NaN NaN
02 3 49 3 0 1 2 1 -1 0 +1 1 1 1 00.9919 00.7580 01.2060 1 0 1
02 3 50 28 0 1 2 1 -1 1 +1 1 1 2 01.3415 02.2761 00.7399 1 0 0
02 3 51 19 1 0 0 0 +0 0 +0 2 NaN NaN 01.5680 00.0000 00.0000 1 NaN NaN
02 3 52 40 0 1 1 1 -1 0 -1 1 1 1 01.3365 01.2960 01.0328 1 1 1
02 3 53 45 0 1 1 3 +1 1 +1 1 1 2 04.8398 00.3165 00.7666 1 1 1
02 3 54 33 0 1 1 4 -1 1 +1 2 NaN NaN 00.9520 00.0000 00.0000 0 NaN NaN
02 3 55 33 0 1 1 3 -1 0 +1 1 1 1 01.7385 01.0732 00.5476 1 1 1
02 3 56 25 1 0 0 0 +0 0 +0 2 NaN NaN 00.9984 00.0000 00.0000 1 NaN NaN
02 3 57 40 0 1 1 4 +1 1 +1 2 NaN NaN 01.3501 00.0000 00.0000 0 NaN NaN
02 3 58 32 0 1 2 4 -1 0 +1 1 1 2 01.1112 01.1916 00.5643 1 0 0
02 3 59 37 0 1 1 1 -1 1 -1 1 2 2 01.0311 00.6991 01.0051 1 0 0
02 3 60 2 1 0 0 0 +0 0 +0 2 NaN NaN 01.1648 00.0000 00.0000 1 NaN NaN
02 3 61 4 0 1 2 1 -1 0 -1 2 NaN NaN 01.5256 00.0000 00.0000 0 NaN NaN
02 3 62 45 0 1 1 4 +1 0 -1 1 1 2 01.9196 00.6545 00.9306 1 1 1
02 3 63 21 0 1 2 4 +1 1 +1 1 2 1 01.4298 00.4730 00.9966 1 1 0
02 3 64 22 0 1 2 3 -1 1 -1 1 2 1 01.9250 00.8678 00.6548 1 1 1
02 3 65 19 0 1 2 4 +1 0 -1 1 2 1 01.2140 00.4584 00.9342 1 1 0
02 3 66 10 0 1 1 1 +1 0 +1 1 2 1 01.0967 01.3378 15.4093 1 0 0
02 3 67 7 0 1 2 1 -1 1 -1 2 NaN NaN 06.1499 00.0000 00.0000 0 NaN NaN
02 3 68 15 1 0 0 0 +0 0 +0 2 NaN NaN 01.2625 00.0000 00.0000 1 NaN NaN
02 3 69 14 1 0 0 0 +0 0 +0 2 NaN NaN 00.9796 00.0000 00.0000 1 NaN NaN
02 3 70 11 0 1 1 1 +1 1 +1 2 NaN NaN 00.8367 00.0000 00.0000 0 NaN NaN
02 3 71 41 0 1 1 4 +1 0 +1 1 2 1 01.8200 01.1193 00.9438 1 0 0
02 3 72 43 0 1 2 3 +1 0 +1 2 NaN NaN 00.9942 00.0000 00.0000 0 NaN NaN
02 3 73 36 0 1 1 3 -1 1 +1 2 NaN NaN 00.7547 00.0000 00.0000 0 NaN NaN
02 3 74 41 0 1 1 1 -1 1 +1 2 NaN NaN 00.7495 00.0000 00.0000 0 NaN NaN
02 3 75 5 0 1 2 3 -1 0 -1 1 2 1 00.9684 00.4953 02.8255 1 1 1
02 3 76 47 0 1 2 3 +1 0 -1 2 NaN NaN 01.3892 00.0000 00.0000 0 NaN NaN
02 3 77 30 0 1 2 1 +1 1 +1 2 NaN NaN 00.9414 00.0000 00.0000 0 NaN NaN
02 3 78 26 0 1 2 3 +1 1 +1 2 NaN NaN 01.3279 00.0000 00.0000 0 NaN NaN
02 3 79 9 0 1 2 4 -1 1 -1 2 NaN NaN 00.7544 00.0000 00.0000 0 NaN NaN
02 3 80 18 0 1 1 1 +1 0 -1 2 NaN NaN 03.0047 00.0000 00.0000 0 NaN NaN
02 4 01 46 0 1 1 1 -1 0 +1 1 2 1 02.4951 01.8775 00.7426 1 0 1
02 4 02 36 0 1 1 3 -1 1 +1 2 NaN NaN 01.4086 00.0000 00.0000 0 NaN NaN
02 4 03 40 0 1 1 4 +1 1 +1 2 NaN NaN 00.8478 00.0000 00.0000 0 NaN NaN
02 4 04 16 0 1 1 4 -1 0 -1 1 1 2 01.6857 00.6545 00.8343 1 1 0
02 4 05 19 1 0 0 0 +0 0 +0 2 NaN NaN 01.8818 00.0000 00.0000 1 NaN NaN
02 4 06 3 0 1 2 1 -1 0 +1 1 1 2 00.9812 00.7633 00.7147 1 0 0
02 4 07 29 1 0 0 0 +0 0 +0 2 NaN NaN 00.8222 00.0000 00.0000 1 NaN NaN
02 4 08 18 0 1 1 1 +1 0 -1 1 1 1 03.7260 00.4498 01.2621 1 1 0
02 4 09 47 0 1 2 3 -1 1 +1 1 2 1 01.1387 00.9143 00.8593 1 1 1
02 4 10 48 0 1 1 3 -1 1 -1 1 2 1 02.5292 01.2384 00.7219 1 0 1
02 4 11 14 0 1 2 3 +1 1 -1 2 NaN NaN 01.0062 00.0000 00.0000 0 NaN NaN
02 4 12 17 0 1 2 1 -1 0 -1 2 NaN NaN 01.8540 00.0000 00.0000 0 NaN NaN
02 4 13 21 0 1 2 4 +1 1 +1 1 2 1 01.1628 00.3772 00.7923 1 1 0
02 4 14 6 0 1 1 1 -1 1 +1 1 1 2 01.1532 01.1523 00.6874 1 1 0
02 4 15 35 0 1 1 4 -1 1 -1 1 2 1 01.0844 00.4463 00.7788 1 0 1
02 4 16 5 0 1 1 1 +1 1 -1 1 1 2 04.3715 02.1556 00.7849 1 1 1
02 4 17 34 0 1 1 1 +1 1 +1 1 1 1 01.0983 01.7716 01.1529 1 1 0
02 4 18 11 0 1 2 4 -1 0 -1 2 NaN NaN 05.2108 00.0000 00.0000 0 NaN NaN
02 4 19 21 1 0 0 0 +0 0 +0 2 NaN NaN 01.2592 00.0000 00.0000 1 NaN NaN
02 4 20 4 0 1 2 1 -1 0 -1 1 1 2 01.1045 00.4977 00.8600 1 0 0
02 4 21 10 0 1 1 1 +1 0 +1 1 2 1 01.2500 00.4928 00.7113 1 0 0
02 4 22 33 0 1 1 3 -1 0 +1 1 2 1 01.5069 01.0272 00.6473 1 0 1
02 4 23 1 0 1 2 1 +1 1 -1 2 NaN NaN 01.2855 00.0000 00.0000 0 NaN NaN
02 4 24 9 0 1 2 4 -1 1 -1 2 NaN NaN 00.6974 00.0000 00.0000 0 NaN NaN
02 4 25 25 1 0 0 0 +0 0 +0 2 NaN NaN 00.8703 00.0000 00.0000 1 NaN NaN
02 4 26 22 0 1 2 3 -1 1 -1 1 2 1 01.0523 00.4318 00.7488 1 1 1
02 4 27 4 0 1 1 1 +1 1 -1 1 2 1 01.7031 02.3351 00.7005 1 0 0
02 4 28 44 1 0 0 0 +0 0 +0 2 NaN NaN 02.4255 00.0000 00.0000 1 NaN NaN
02 4 29 18 1 0 0 0 +0 0 +0 2 NaN NaN 01.0858 00.0000 00.0000 1 NaN NaN
02 4 30 11 0 1 1 1 +1 1 +1 2 NaN NaN 00.8741 00.0000 00.0000 0 NaN NaN
02 4 31 35 0 1 2 1 +1 0 +1 1 2 1 03.8395 00.4939 01.1762 1 1 0
02 4 32 37 0 1 1 1 -1 1 -1 1 2 2 01.5370 00.7521 00.9438 1 0 0
02 4 33 41 0 1 1 1 -1 1 +1 2 NaN NaN 01.1225 00.0000 00.0000 0 NaN NaN
02 4 34 7 0 1 2 1 -1 1 -1 2 NaN NaN 00.7492 00.0000 00.0000 0 NaN NaN
02 4 35 38 0 1 2 1 +1 0 -1 1 2 1 06.7760 00.3317 00.7491 1 1 0
02 4 36 23 0 1 1 1 -1 1 -1 2 NaN NaN 02.2799 00.0000 00.0000 0 NaN NaN
02 4 37 47 0 1 2 3 +1 0 -1 2 NaN NaN 01.1865 00.0000 00.0000 0 NaN NaN
02 4 38 5 0 1 2 3 -1 0 -1 1 2 1 00.8266 00.5350 03.4720 1 1 1
02 4 39 46 0 1 2 1 +1 1 -1 1 2 2 01.0328 00.6529 01.4570 1 1 1
02 4 40 22 0 1 2 4 +1 0 +1 2 NaN NaN 01.1659 00.0000 00.0000 0 NaN NaN
02 4 41 27 0 1 1 3 +1 0 -1 1 2 1 01.0790 00.7611 01.0322 1 0 0
02 4 42 31 0 1 1 3 +1 0 +1 1 2 1 01.3832 01.2445 02.6794 1 0 0
02 4 43 29 1 0 0 0 +0 0 +0 2 NaN NaN 04.5453 00.0000 00.0000 1 NaN NaN
02 4 44 41 0 1 1 4 +1 0 +1 1 1 1 01.2615 01.6238 00.9313 1 1 0
02 4 45 8 0 1 1 4 -1 0 +1 2 NaN NaN 01.0144 00.0000 00.0000 0 NaN NaN
02 4 46 48 0 1 1 3 -1 0 -1 1 1 2 01.5261 00.3580 00.7425 1 1 0
02 4 47 39 0 1 1 1 -1 0 -1 1 2 1 02.8328 01.2734 00.5950 1 0 1
02 4 48 15 0 1 2 1 +1 0 -1 2 NaN NaN 04.3240 00.0000 00.0000 0 NaN NaN
02 4 49 28 0 1 1 1 -1 0 +1 2 NaN NaN 02.0886 00.0000 00.0000 0 NaN NaN
02 4 50 28 0 1 2 1 -1 1 +1 2 NaN NaN 01.4034 00.0000 00.0000 0 NaN NaN
02 4 51 26 0 1 2 3 +1 1 +1 2 NaN NaN 00.7471 00.0000 00.0000 0 NaN NaN
02 4 52 30 0 1 2 1 +1 1 +1 2 NaN NaN 00.8222 00.0000 00.0000 0 NaN NaN
02 4 53 36 1 0 0 0 +0 0 +0 2 NaN NaN 00.8615 00.0000 00.0000 1 NaN NaN
02 4 54 30 1 0 0 0 +0 0 +0 2 NaN NaN 01.8588 00.0000 00.0000 1 NaN NaN
02 4 55 40 0 1 1 1 -1 0 -1 1 1 2 02.9909 00.2251 00.3747 1 1 0
02 4 56 37 0 1 1 1 +1 0 +1 2 NaN NaN 06.5768 00.0000 00.0000 0 NaN NaN
02 4 57 14 1 0 0 0 +0 0 +0 2 NaN NaN 01.0159 00.0000 00.0000 1 NaN NaN
02 4 58 42 0 1 2 1 -1 0 +1 1 2 1 04.2636 00.6447 00.6649 1 1 1
02 4 59 13 0 1 1 1 +1 0 -1 2 NaN NaN 01.9911 00.0000 00.0000 0 NaN NaN
02 4 60 38 0 1 2 4 +1 1 -1 2 NaN NaN 00.9743 00.0000 00.0000 0 NaN NaN
02 4 61 45 0 1 1 3 +1 1 +1 1 1 2 06.7677 08.4349 01.0101 1 1 1
02 4 62 15 1 0 0 0 +0 0 +0 2 NaN NaN 01.7459 00.0000 00.0000 1 NaN NaN
02 4 63 25 0 1 1 3 +1 1 -1 2 NaN NaN 00.9309 00.0000 00.0000 0 NaN NaN
02 4 64 31 0 1 2 1 -1 1 +1 2 NaN NaN 01.1422 00.0000 00.0000 0 NaN NaN
02 4 65 16 0 1 2 1 +1 1 +1 2 NaN NaN 01.0562 00.0000 00.0000 0 NaN NaN
02 4 66 20 0 1 2 3 -1 0 +1 2 NaN NaN 01.0865 00.0000 00.0000 0 NaN NaN
02 4 67 32 0 1 2 4 -1 0 +1 1 1 2 01.0834 01.6294 00.9202 1 0 0
02 4 68 43 0 1 2 3 +1 0 +1 2 NaN NaN 00.9400 00.0000 00.0000 0 NaN NaN
02 4 69 20 1 0 0 0 +0 0 +0 2 NaN NaN 00.9427 00.0000 00.0000 1 NaN NaN
02 4 70 24 0 1 2 1 +1 0 +1 1 2 1 01.1052 00.8984 02.5718 1 1 0
02 4 71 10 0 1 2 1 -1 1 -1 1 1 2 03.6746 00.9922 00.8702 1 0 0
02 4 72 19 0 1 2 4 +1 0 -1 1 2 1 01.1476 00.3946 00.4253 1 1 0
02 4 73 33 0 1 1 4 -1 1 +1 2 NaN NaN 00.9447 00.0000 00.0000 0 NaN NaN
02 4 74 9 1 0 0 0 +0 0 +0 2 NaN NaN 01.2840 00.0000 00.0000 1 NaN NaN
02 4 75 45 0 1 1 4 +1 0 -1 1 1 2 00.9523 00.4798 00.8110 1 1 1
02 4 76 32 0 1 2 4 -1 1 +1 2 NaN NaN 01.1703 00.0000 00.0000 0 NaN NaN
02 4 77 2 1 0 0 0 +0 0 +0 2 NaN NaN 00.7309 00.0000 00.0000 1 NaN NaN
02 4 78 27 1 0 0 0 +0 0 +0 2 NaN NaN 01.1259 00.0000 00.0000 1 NaN NaN
02 4 79 24 0 1 1 4 +1 1 -1 2 NaN NaN 02.0807 00.0000 00.0000 0 NaN NaN
02 4 80 2 1 0 0 0 +0 0 +0 2 NaN NaN 07.5229 00.0000 00.0000 1 NaN NaN
02 5 01 17 0 1 2 1 -1 0 -1 2 NaN NaN 01.3242 00.0000 00.0000 0 NaN NaN
02 5 02 29 1 0 0 0 +0 0 +0 2 NaN NaN 00.7028 00.0000 00.0000 1 NaN NaN
02 5 03 37 0 1 1 1 -1 1 -1 1 2 1 00.9715 02.2584 01.2354 1 0 1
02 5 04 19 0 1 2 4 +1 0 -1 1 2 1 01.2099 01.7663 02.0756 1 1 0
02 5 05 38 0 1 2 1 +1 0 -1 1 2 2 02.0625 00.7112 00.9204 1 1 1
02 5 06 31 0 1 2 1 -1 1 +1 2 NaN NaN 00.9717 00.0000 00.0000 0 NaN NaN
02 5 07 24 0 1 1 4 +1 1 -1 2 NaN NaN 00.7808 00.0000 00.0000 0 NaN NaN
02 5 08 25 0 1 1 3 +1 1 -1 2 NaN NaN 00.7255 00.0000 00.0000 0 NaN NaN
02 5 09 9 1 0 0 0 +0 0 +0 2 NaN NaN 00.7371 00.0000 00.0000 1 NaN NaN
02 5 10 41 0 1 1 4 +1 0 +1 1 1 1 01.2127 01.9130 00.8240 1 1 0
02 5 11 33 0 1 1 3 -1 0 +1 1 1 2 00.9761 00.5827 00.8138 1 1 0
02 5 12 28 0 1 2 1 -1 1 +1 2 NaN NaN 01.1417 00.0000 00.0000 0 NaN NaN
02 5 13 7 0 1 2 1 -1 1 -1 2 NaN NaN 00.8479 00.0000 00.0000 0 NaN NaN
02 5 14 21 1 0 0 0 +0 0 +0 2 NaN NaN 01.2226 00.0000 00.0000 1 NaN NaN
02 5 15 38 0 1 2 4 +1 1 -1 2 NaN NaN 01.1813 00.0000 00.0000 0 NaN NaN
02 5 16 19 1 0 0 0 +0 0 +0 2 NaN NaN 00.8539 00.0000 00.0000 1 NaN NaN
02 5 17 47 0 1 2 3 -1 1 +1 1 2 1 01.3241 01.5241 00.4033 1 1 1
02 5 18 10 0 1 2 1 -1 1 -1 1 2 1 01.2287 00.7443 01.9280 1 1 1
02 5 19 27 1 0 0 0 +0 0 +0 2 NaN NaN 02.2893 00.0000 00.0000 1 NaN NaN
02 5 20 29 1 0 0 0 +0 0 +0 2 NaN NaN 02.5879 00.0000 00.0000 1 NaN NaN
02 5 21 45 0 1 1 3 +1 1 +1 1 1 1 01.1134 01.5781 00.6309 1 1 0
02 5 22 48 0 1 1 3 -1 1 -1 2 NaN NaN 01.9106 00.0000 00.0000 0 NaN NaN
02 5 23 39 0 1 1 1 -1 0 -1 1 2 1 00.9926 00.7427 00.3745 1 0 1
02 5 24 20 1 0 0 0 +0 0 +0 2 NaN NaN 00.9441 00.0000 00.0000 1 NaN NaN
02 5 25 22 0 1 2 3 -1 1 -1 1 2 1 01.0584 00.4371 00.7384 1 1 1
02 5 26 10 0 1 1 1 +1 0 +1 1 2 1 01.4692 00.5109 00.5206 1 0 0
02 5 27 40 0 1 1 4 +1 1 +1 2 NaN NaN 01.0693 00.0000 00.0000 0 NaN NaN
02 5 28 36 0 1 1 3 -1 1 +1 2 NaN NaN 01.7548 00.0000 00.0000 0 NaN NaN
02 5 29 36 1 0 0 0 +0 0 +0 2 NaN NaN 00.9877 00.0000 00.0000 1 NaN NaN
02 5 30 37 0 1 1 1 +1 0 +1 2 NaN NaN 01.5489 00.0000 00.0000 0 NaN NaN
02 5 31 46 0 1 2 1 +1 1 -1 1 2 2 00.7896 00.4039 01.2508 1 1 1
02 5 32 43 0 1 2 3 +1 0 +1 2 NaN NaN 01.3999 00.0000 00.0000 0 NaN NaN
02 5 33 2 1 0 0 0 +0 0 +0 2 NaN NaN 04.5029 00.0000 00.0000 1 NaN NaN
02 5 34 34 0 1 1 1 +1 1 +1 1 1 2 00.9644 00.3153 00.6374 1 1 1
02 5 35 5 0 1 2 3 -1 0 -1 1 2 1 01.0050 00.3221 00.8676 1 1 1
02 5 36 48 0 1 1 3 -1 0 -1 1 2 1 01.1458 00.6168 01.8703 1 0 1
02 5 37 5 0 1 1 1 +1 1 -1 1 1 2 02.5703 00.5261 00.4397 1 1 1
02 5 38 21 0 1 2 4 +1 1 +1 1 2 1 01.5833 00.2840 02.5435 1 1 0
02 5 39 6 0 1 1 1 -1 1 +1 1 2 1 01.2628 00.8092 00.5663 1 0 1
02 5 40 31 0 1 1 3 +1 0 +1 1 2 1 03.8480 00.8859 00.3362 1 0 0
02 5 41 28 0 1 1 1 -1 0 +1 2 NaN NaN 01.4526 00.0000 00.0000 0 NaN NaN
02 5 42 15 1 0 0 0 +0 0 +0 2 NaN NaN 01.3215 00.0000 00.0000 1 NaN NaN
02 5 43 35 0 1 2 1 +1 0 +1 1 2 1 06.3159 00.4511 00.4635 1 1 0
02 5 44 8 0 1 1 4 -1 0 +1 2 NaN NaN 01.0776 00.0000 00.0000 0 NaN NaN
02 5 45 20 0 1 2 3 -1 0 +1 2 NaN NaN 00.9944 00.0000 00.0000 0 NaN NaN
02 5 46 32 0 1 2 4 -1 1 +1 2 NaN NaN 01.0429 00.0000 00.0000 0 NaN NaN
02 5 47 22 0 1 2 4 +1 0 +1 2 NaN NaN 00.8492 00.0000 00.0000 0 NaN NaN
02 5 48 27 0 1 1 3 +1 0 -1 1 1 2 00.9678 01.1028 00.6559 1 1 1
02 5 49 42 0 1 2 1 -1 0 +1 1 2 1 01.7584 00.6279 00.8569 1 1 1
02 5 50 26 0 1 2 3 +1 1 +1 2 NaN NaN 00.9269 00.0000 00.0000 0 NaN NaN
02 5 51 33 0 1 1 4 -1 1 +1 2 NaN NaN 00.5781 00.0000 00.0000 0 NaN NaN
02 5 52 30 1 0 0 0 +0 0 +0 1 1 2 00.9314 05.5475 00.6429 0 0 0
02 5 53 9 0 1 2 4 -1 1 -1 2 NaN NaN 00.8332 00.0000 00.0000 0 NaN NaN
02 5 54 18 1 0 0 0 +0 0 +0 2 NaN NaN 00.5365 00.0000 00.0000 1 NaN NaN
02 5 55 15 0 1 2 1 +1 0 -1 2 NaN NaN 00.8446 00.0000 00.0000 0 NaN NaN
02 5 56 14 1 0 0 0 +0 0 +0 2 NaN NaN 03.4266 00.0000 00.0000 1 NaN NaN
02 5 57 2 1 0 0 0 +0 0 +0 2 NaN NaN 04.1890 00.0000 00.0000 1 NaN NaN
02 5 58 4 0 1 2 1 -1 0 -1 1 1 2 01.4638 00.3458 00.6985 1 0 0
02 5 59 41 0 1 1 1 -1 1 +1 2 NaN NaN 01.0152 00.0000 00.0000 0 NaN NaN
02 5 60 16 0 1 1 4 -1 0 -1 1 2 1 04.1030 00.3786 00.3938 1 0 1
02 5 61 25 1 0 0 0 +0 0 +0 2 NaN NaN 00.8672 00.0000 00.0000 1 NaN NaN
02 5 62 44 1 0 0 0 +0 0 +0 1 1 2 01.3846 00.3819 00.3171 0 0 0
02 5 63 24 0 1 2 1 +1 0 +1 1 2 1 01.1135 00.3140 01.2600 1 1 0
02 5 64 3 0 1 2 1 -1 0 +1 1 1 2 05.0411 00.3014 00.3522 1 0 0
02 5 65 47 0 1 2 3 +1 0 -1 2 NaN NaN 00.9872 00.0000 00.0000 0 NaN NaN
02 5 66 11 0 1 2 4 -1 0 -1 2 NaN NaN 01.4202 00.0000 00.0000 0 NaN NaN
02 5 67 23 0 1 1 1 -1 1 -1 2 NaN NaN 00.8587 00.0000 00.0000 0 NaN NaN
02 5 68 1 0 1 2 1 +1 1 -1 2 NaN NaN 00.7052 00.0000 00.0000 0 NaN NaN
02 5 69 35 0 1 1 4 -1 1 -1 1 2 1 01.1502 01.3575 00.4512 1 0 1
02 5 70 18 0 1 1 1 +1 0 -1 1 1 2 01.2909 00.8363 00.4969 1 1 1
02 5 71 4 0 1 1 1 +1 1 -1 1 1 2 02.9335 01.0657 00.5884 1 1 1
02 5 72 13 0 1 1 1 +1 0 -1 1 2 1 08.5101 00.3611 00.3290 1 0 0
02 5 73 16 0 1 2 1 +1 1 +1 2 NaN NaN 01.7006 00.0000 00.0000 0 NaN NaN
02 5 74 40 0 1 1 1 -1 0 -1 1 1 2 02.1676 00.2522 00.3370 1 1 0
02 5 75 11 0 1 1 1 +1 1 +1 2 NaN NaN 01.4373 00.0000 00.0000 0 NaN NaN
02 5 76 45 0 1 1 4 +1 0 -1 1 1 2 00.9069 00.2926 00.6799 1 1 1
02 5 77 32 0 1 2 4 -1 0 +1 1 1 2 07.3968 00.4307 00.4278 1 0 0
02 5 78 30 0 1 2 1 +1 1 +1 2 NaN NaN 00.8680 00.0000 00.0000 0 NaN NaN
02 5 79 46 0 1 1 1 -1 0 +1 1 1 2 01.3379 00.7534 00.2892 1 1 0
02 5 80 14 0 1 2 3 +1 1 -1 2 NaN NaN 00.9589 00.0000 00.0000 0 NaN NaN
02 6 01 8 0 1 1 4 -1 0 +1 2 NaN NaN 02.0228 00.0000 00.0000 0 NaN NaN
02 6 02 19 1 0 0 0 +0 0 +0 2 NaN NaN 01.1640 00.0000 00.0000 1 NaN NaN
02 6 03 11 0 1 1 1 +1 1 +1 2 NaN NaN 00.8208 00.0000 00.0000 0 NaN NaN
02 6 04 31 0 1 1 3 +1 0 +1 1 1 2 01.2282 00.3917 00.4230 1 1 1
02 6 05 43 0 1 2 3 +1 0 +1 2 NaN NaN 00.9591 00.0000 00.0000 0 NaN NaN
02 6 06 40 0 1 1 1 -1 0 -1 2 NaN NaN 02.7210 00.0000 00.0000 0 NaN NaN
02 6 07 4 0 1 2 1 -1 0 -1 1 1 2 00.9534 00.3530 00.3375 1 0 0
02 6 08 17 0 1 2 1 -1 0 -1 2 NaN NaN 01.1331 00.0000 00.0000 0 NaN NaN
02 6 09 47 0 1 2 3 +1 0 -1 2 NaN NaN 00.8071 00.0000 00.0000 0 NaN NaN
02 6 10 2 1 0 0 0 +0 0 +0 2 NaN NaN 00.7194 00.0000 00.0000 1 NaN NaN
02 6 11 13 0 1 1 1 +1 0 -1 2 NaN NaN 02.5557 00.0000 00.0000 0 NaN NaN
02 6 12 15 1 0 0 0 +0 0 +0 2 NaN NaN 00.7944 00.0000 00.0000 1 NaN NaN
02 6 13 48 0 1 1 3 -1 0 -1 2 NaN NaN 03.6352 00.0000 00.0000 0 NaN NaN
02 6 14 29 1 0 0 0 +0 0 +0 2 NaN NaN 00.7251 00.0000 00.0000 1 NaN NaN
02 6 15 38 0 1 2 4 +1 1 -1 2 NaN NaN 00.8963 00.0000 00.0000 0 NaN NaN
02 6 16 16 0 1 1 4 -1 0 -1 1 1 2 00.9160 00.4448 00.3775 1 1 0
02 6 17 33 0 1 1 4 -1 1 +1 2 NaN NaN 01.5069 00.0000 00.0000 0 NaN NaN
02 6 18 14 1 0 0 0 +0 0 +0 2 NaN NaN 01.0862 00.0000 00.0000 1 NaN NaN
02 6 19 11 0 1 2 4 -1 0 -1 2 NaN NaN 03.1793 00.0000 00.0000 0 NaN NaN
02 6 20 20 1 0 0 0 +0 0 +0 2 NaN NaN 01.0082 00.0000 00.0000 1 NaN NaN
02 6 21 33 0 1 1 3 -1 0 +1 1 1 2 01.0399 00.3066 00.2945 1 1 0
02 6 22 26 0 1 2 3 +1 1 +1 2 NaN NaN 00.9321 00.0000 00.0000 0 NaN NaN
02 6 23 27 0 1 1 3 +1 0 -1 1 2 1 01.1909 00.2756 00.5200 1 0 0
02 6 24 29 1 0 0 0 +0 0 +0 2 NaN NaN 01.0846 00.0000 00.0000 1 NaN NaN
02 6 25 5 0 1 2 3 -1 0 -1 2 NaN NaN 01.0968 00.0000 00.0000 0 NaN NaN
02 6 26 27 1 0 0 0 +0 0 +0 2 NaN NaN 03.1084 00.0000 00.0000 1 NaN NaN
02 6 27 22 0 1 2 4 +1 0 +1 2 NaN NaN 01.0048 00.0000 00.0000 0 NaN NaN
02 6 28 42 0 1 2 1 -1 0 +1 1 2 1 01.1812 00.5389 01.3159 1 1 1
02 6 29 38 0 1 2 1 +1 0 -1 1 2 2 01.5269 00.2301 01.3556 1 1 1
02 6 30 5 0 1 1 1 +1 1 -1 1 1 2 01.1332 00.2531 00.3859 1 1 1
02 6 31 45 0 1 1 4 +1 0 -1 1 1 2 00.9080 00.2609 00.4891 1 1 1
02 6 32 35 0 1 1 4 -1 1 -1 1 2 1 01.7584 00.5162 00.9740 1 0 1
02 6 33 46 0 1 2 1 +1 1 -1 1 2 2 00.8797 01.8822 01.0504 1 1 1
02 6 34 14 0 1 2 3 +1 1 -1 2 NaN NaN 02.7926 00.0000 00.0000 0 NaN NaN
02 6 35 30 0 1 2 1 +1 1 +1 2 NaN NaN 00.7337 00.0000 00.0000 0 NaN NaN
02 6 36 23 0 1 1 1 -1 1 -1 2 NaN NaN 00.7445 00.0000 00.0000 0 NaN NaN
02 6 37 45 0 1 1 3 +1 1 +1 1 1 2 01.1548 02.2101 00.9169 1 1 1
02 6 38 40 0 1 1 4 +1 1 +1 2 NaN NaN 01.1927 00.0000 00.0000 0 NaN NaN
02 6 39 21 1 0 0 0 +0 0 +0 2 NaN NaN 01.3449 00.0000 00.0000 1 NaN NaN
02 6 40 18 0 1 1 1 +1 0 -1 2 NaN NaN 01.5226 00.0000 00.0000 0 NaN NaN
02 6 41 18 1 0 0 0 +0 0 +0 2 NaN NaN 00.9247 00.0000 00.0000 1 NaN NaN
02 6 42 21 0 1 2 4 +1 1 +1 1 2 1 00.9759 00.4060 01.4918 1 1 0
02 6 43 46 0 1 1 1 -1 0 +1 1 1 2 01.0239 01.2197 00.3690 1 1 0
02 6 44 28 0 1 2 1 -1 1 +1 2 NaN NaN 01.4038 00.0000 00.0000 0 NaN NaN
02 6 45 36 1 0 0 0 +0 0 +0 2 NaN NaN 01.0668 00.0000 00.0000 1 NaN NaN
02 6 46 10 0 1 2 1 -1 1 -1 1 1 2 01.0957 00.2968 00.3316 1 0 0
02 6 47 39 0 1 1 1 -1 0 -1 1 2 1 01.1914 00.8368 00.4333 1 0 1
02 6 48 24 0 1 2 1 +1 0 +1 1 2 1 01.2894 00.2749 00.5024 1 1 0
02 6 49 41 0 1 1 4 +1 0 +1 1 1 2 01.6597 00.2780 00.3293 1 1 1
02 6 50 9 1 0 0 0 +0 0 +0 2 NaN NaN 01.6210 00.0000 00.0000 1 NaN NaN
02 6 51 32 0 1 2 4 -1 0 +1 1 1 2 01.0194 00.7203 00.9295 1 0 0
02 6 52 31 0 1 2 1 -1 1 +1 2 NaN NaN 01.2039 00.0000 00.0000 0 NaN NaN
02 6 53 24 0 1 1 4 +1 1 -1 2 NaN NaN 01.1960 00.0000 00.0000 0 NaN NaN
02 6 54 48 0 1 1 3 -1 1 -1 1 1 2 01.9241 00.2270 00.3605 1 1 0
02 6 55 22 0 1 2 3 -1 1 -1 1 2 1 01.5875 00.2725 00.5962 1 1 1
02 6 56 10 0 1 1 1 +1 0 +1 1 1 2 01.5097 00.3101 00.2803 1 1 1
02 6 57 47 0 1 2 3 -1 1 +1 1 1 2 00.9981 00.5874 00.6421 1 0 0
02 6 58 37 0 1 1 1 -1 1 -1 1 2 1 01.0886 00.6743 01.6697 1 0 1
02 6 59 25 0 1 1 3 +1 1 -1 2 NaN NaN 01.2095 00.0000 00.0000 0 NaN NaN
02 6 60 34 0 1 1 1 +1 1 +1 1 1 2 08.8328 00.3986 01.1490 1 1 1
02 6 61 25 1 0 0 0 +0 0 +0 2 NaN NaN 00.9023 00.0000 00.0000 1 NaN NaN
02 6 62 9 0 1 2 4 -1 1 -1 2 NaN NaN 00.7630 00.0000 00.0000 0 NaN NaN
02 6 63 19 0 1 2 4 +1 0 -1 1 2 1 01.1086 00.2777 00.5379 1 1 0
02 6 64 36 0 1 1 3 -1 1 +1 2 NaN NaN 00.9417 00.0000 00.0000 0 NaN NaN
02 6 65 30 1 0 0 0 +0 0 +0 2 NaN NaN 01.3123 00.0000 00.0000 1 NaN NaN
02 6 66 44 1 0 0 0 +0 0 +0 1 1 2 01.8908 00.2585 00.4233 0 0 0
02 6 67 37 0 1 1 1 +1 0 +1 2 NaN NaN 01.2794 00.0000 00.0000 0 NaN NaN
02 6 68 16 0 1 2 1 +1 1 +1 2 NaN NaN 01.6513 00.0000 00.0000 0 NaN NaN
02 6 69 4 0 1 1 1 +1 1 -1 1 1 2 02.9364 00.4287 00.3779 1 1 1
02 6 70 7 0 1 2 1 -1 1 -1 2 NaN NaN 00.9475 00.0000 00.0000 0 NaN NaN
02 6 71 6 0 1 1 1 -1 1 +1 1 2 1 00.9013 00.6068 00.6289 1 0 1
02 6 72 3 0 1 2 1 -1 0 +1 1 1 2 00.9960 00.3294 00.2988 1 0 0
02 6 73 1 0 1 2 1 +1 1 -1 2 NaN NaN 00.9678 00.0000 00.0000 0 NaN NaN
02 6 74 35 0 1 2 1 +1 0 +1 1 2 1 01.1137 00.8902 00.5160 1 1 0
02 6 75 41 0 1 1 1 -1 1 +1 2 NaN NaN 01.0011 00.0000 00.0000 0 NaN NaN
02 6 76 15 0 1 2 1 +1 0 -1 2 NaN NaN 01.8494 00.0000 00.0000 0 NaN NaN
02 6 77 20 0 1 2 3 -1 0 +1 2 NaN NaN 00.9336 00.0000 00.0000 0 NaN NaN
02 6 78 2 1 0 0 0 +0 0 +0 2 NaN NaN 03.2408 00.0000 00.0000 1 NaN NaN
02 6 79 28 0 1 1 1 -1 0 +1 2 NaN NaN 00.9869 00.0000 00.0000 0 NaN NaN
02 6 80 32 0 1 2 4 -1 1 +1 2 NaN NaN 00.9873 00.0000 00.0000 0 NaN NaN
