sub block trial obj foil exp maze DP turn attend pos resp1 resp2 resp3 RT1 RT2 RT3 correct1 correct2 correct3
Subject 10 -- attend furniture
10 1 01 33 1 0 0 0 +0 0 +0 2 NaN NaN 02.7180 00.0000 00.0000 1 NaN NaN
10 1 02 11 0 1 1 1 -1 1 +1 1 1 2 05.0624 05.3941 04.8158 1 1 0
10 1 03 3 0 1 1 1 +1 0 -1 1 2 2 01.1999 01.6288 01.5118 1 0 1
10 1 04 21 0 1 1 1 -1 0 +1 1 1 2 01.2179 03.1822 02.9202 1 1 0
10 1 05 32 1 0 0 0 +0 0 +0 2 NaN NaN 01.4632 00.0000 00.0000 1 NaN NaN
10 1 06 31 0 1 1 4 -1 0 -1 2 NaN NaN 02.6275 00.0000 00.0000 0 NaN NaN
10 1 07 2 0 1 2 1 +1 0 -1 1 2 1 01.4234 02.3871 01.3748 1 1 0
10 1 08 1 0 1 2 4 +1 1 -1 1 2 2 01.3751 02.3878 00.9765 1 1 1
10 1 09 21 0 1 1 1 -1 1 -1 1 1 2 02.6568 00.9291 00.8892 1 1 0
10 1 10 33 0 1 2 1 -1 1 +1 1 2 1 01.1178 02.2064 01.5695 1 1 1
10 1 11 29 0 1 1 3 +1 1 -1 2 NaN NaN 02.0579 00.0000 00.0000 0 NaN NaN
10 1 12 35 1 0 0 0 +0 0 +0 2 NaN NaN 03.0858 00.0000 00.0000 1 NaN NaN
10 1 13 45 0 1 2 1 -1 0 -1 2 NaN NaN 03.7668 00.0000 00.0000 0 NaN NaN
10 1 14 34 0 1 1 3 +1 0 +1 1 1 1 01.5065 01.6989 01.1790 1 1 0
10 1 15 4 0 1 1 4 +1 0 -1 1 2 1 00.9950 05.3364 02.4081 1 0 0
10 1 16 34 1 0 0 0 +0 0 +0 2 NaN NaN 01.8371 00.0000 00.0000 1 NaN NaN
10 1 17 27 0 1 1 4 -1 1 +1 2 NaN NaN 03.5939 00.0000 00.0000 0 NaN NaN
10 1 18 5 0 1 2 3 -1 0 +1 2 NaN NaN 02.4612 00.0000 00.0000 0 NaN NaN
10 1 19 19 0 1 1 3 -1 0 +1 2 NaN NaN 02.0474 00.0000 00.0000 0 NaN NaN
10 1 20 47 0 1 1 1 +1 0 -1 2 NaN NaN 02.5152 00.0000 00.0000 0 NaN NaN
10 1 21 47 0 1 1 1 +1 1 +1 1 2 1 00.6914 01.1419 00.5657 1 0 0
10 1 22 7 0 1 1 1 -1 1 +1 1 1 2 00.7596 04.0707 00.8595 1 1 0
10 1 23 2 1 0 0 0 +0 0 +0 1 1 1 05.2496 01.7813 00.6821 0 0 0
10 1 24 44 0 1 2 4 +1 0 +1 1 1 2 01.9910 01.1550 00.8341 1 0 1
10 1 25 44 0 1 2 1 -1 1 -1 2 NaN NaN 02.2014 00.0000 00.0000 0 NaN NaN
10 1 26 12 0 1 2 4 -1 1 -1 2 NaN NaN 01.4477 00.0000 00.0000 0 NaN NaN
10 1 27 42 0 1 1 4 +1 1 +1 2 NaN NaN 03.6206 00.0000 00.0000 0 NaN NaN
10 1 28 46 1 0 0 0 +0 0 +0 2 NaN NaN 02.0392 00.0000 00.0000 1 NaN NaN
10 1 29 25 0 1 2 3 -1 0 -1 1 2 1 00.8603 00.9673 02.4302 1 1 1
10 1 30 16 0 1 1 4 -1 1 -1 2 NaN NaN 01.0423 00.0000 00.0000 0 NaN NaN
10 1 31 37 0 1 2 4 +1 0 -1 1 2 2 00.9927 00.9181 01.5029 1 1 1
10 1 32 10 0 1 1 1 -1 0 -1 1 1 2 01.2577 01.9565 00.7543 1 1 0
10 1 33 25 0 1 2 1 +1 1 +1 2 NaN NaN 01.7564 00.0000 00.0000 0 NaN NaN
10 1 34 8 0 1 2 1 +1 0 +1 2 NaN NaN 02.7966 00.0000 00.0000 0 NaN NaN
10 1 35 4 0 1 1 4 +1 1 -1 2 NaN NaN 01.4729 00.0000 00.0000 0 NaN NaN
10 1 36 24 0 1 2 3 +1 1 -1 1 1 1 02.2369 01.3107 00.3268 1 0 0
10 1 37 31 0 1 1 3 +1 1 +1 2 NaN NaN 00.6584 00.0000 00.0000 0 NaN NaN
10 1 38 30 0 1 2 1 +1 1 -1 2 NaN NaN 00.7689 00.0000 00.0000 0 NaN NaN
10 1 39 48 0 1 1 1 +1 1 -1 1 1 1 01.6743 00.8677 00.9587 1 1 0
10 1 40 15 0 1 1 3 -1 0 -1 2 NaN NaN 00.8005 00.0000 00.0000 0 NaN NaN
10 1 41 28 0 1 2 4 +1 1 +1 2 NaN NaN 00.9047 00.0000 00.0000 0 NaN NaN
10 1 42 17 0 1 2 1 +1 0 -1 1 2 2 01.2445 00.8716 01.4745 1 1 1
10 1 43 35 0 1 2 1 -1 1 +1 1 2 2 02.2072 01.1532 00.8814 1 1 0
10 1 44 38 1 0 0 0 +0 0 +0 2 NaN NaN 01.4140 00.0000 00.0000 1 NaN NaN
10 1 45 7 1 0 0 0 +0 0 +0 1 1 2 00.9803 01.9302 06.5847 0 0 0
10 1 46 13 0 1 1 1 -1 0 +1 2 NaN NaN 01.5035 00.0000 00.0000 0 NaN NaN
10 1 47 10 0 1 1 3 -1 1 -1 2 NaN NaN 00.9543 00.0000 00.0000 0 NaN NaN
10 1 48 14 0 1 2 4 -1 0 -1 2 NaN NaN 01.2128 00.0000 00.0000 0 NaN NaN
10 1 49 43 1 0 0 0 +0 0 +0 1 2 1 00.9634 01.2743 00.5959 0 0 0
10 1 50 37 1 0 0 0 +0 0 +0 1 1 2 00.9490 00.6684 00.5757 0 0 0
10 1 51 19 0 1 2 3 -1 1 +1 2 NaN NaN 00.8009 00.0000 00.0000 0 NaN NaN
10 1 52 28 1 0 0 0 +0 0 +0 1 1 2 00.7457 01.8496 00.3152 0 0 0
10 1 53 26 0 1 1 1 +1 0 +1 2 NaN NaN 01.2243 00.0000 00.0000 0 NaN NaN
10 1 54 6 0 1 1 4 -1 0 +1 2 NaN NaN 01.0550 00.0000 00.0000 0 NaN NaN
10 1 55 36 0 1 1 1 -1 1 -1 2 NaN NaN 01.1806 00.0000 00.0000 0 NaN NaN
10 1 56 23 0 1 1 1 +1 1 -1 1 2 1 01.7327 01.0192 00.6719 1 0 0
10 1 57 17 0 1 2 4 -1 1 +1 2 NaN NaN 01.0696 00.0000 00.0000 0 NaN NaN
10 1 58 13 0 1 2 1 +1 1 -1 2 NaN NaN 00.7466 00.0000 00.0000 0 NaN NaN
10 1 59 18 0 1 2 1 +1 1 +1 1 2 2 01.3335 00.6849 00.6236 1 1 1
10 1 60 40 1 0 0 0 +0 0 +0 2 NaN NaN 01.0714 00.0000 00.0000 1 NaN NaN
10 1 61 18 0 1 2 4 -1 0 +1 1 2 1 02.4130 00.6629 00.7783 1 1 1
10 1 62 27 0 1 1 3 +1 0 -1 2 NaN NaN 01.5078 00.0000 00.0000 0 NaN NaN
10 1 63 26 0 1 2 1 -1 1 -1 1 1 1 02.2866 01.2460 00.8571 1 0 1
10 1 64 42 0 1 2 1 -1 0 +1 2 NaN NaN 00.7990 00.0000 00.0000 0 NaN NaN
10 1 65 9 0 1 1 3 -1 1 +1 2 NaN NaN 00.6631 00.0000 00.0000 0 NaN NaN
10 1 66 41 0 1 1 1 +1 1 +1 2 NaN NaN 01.5408 00.0000 00.0000 0 NaN NaN
10 1 67 20 0 1 2 3 +1 0 -1 2 NaN NaN 01.7902 00.0000 00.0000 0 NaN NaN
10 1 68 38 0 1 2 1 -1 0 +1 2 NaN NaN 00.8937 00.0000 00.0000 0 NaN NaN
10 1 69 23 0 1 2 3 +1 0 +1 1 2 2 01.5542 00.4967 00.7630 1 1 1
10 1 70 24 0 1 1 4 +1 0 +1 2 NaN NaN 01.0924 00.0000 00.0000 0 NaN NaN
10 1 71 3 1 0 0 0 +0 0 +0 1 2 1 01.7926 00.7885 00.5469 0 0 0
10 1 72 11 0 1 1 1 -1 0 -1 2 NaN NaN 01.0135 00.0000 00.0000 0 NaN NaN
10 1 73 48 1 0 0 0 +0 0 +0 2 NaN NaN 00.7725 00.0000 00.0000 1 NaN NaN
10 1 74 40 0 1 2 1 -1 0 -1 1 2 1 03.2148 00.8552 01.0260 1 1 1
10 1 75 9 1 0 0 0 +0 0 +0 2 NaN NaN 00.8818 00.0000 00.0000 1 NaN NaN
10 1 76 39 0 1 2 3 +1 1 +1 2 NaN NaN 00.7266 00.0000 00.0000 0 NaN NaN
10 1 77 16 0 1 2 1 +1 0 +1 1 1 1 01.7780 00.5505 00.5908 1 0 0
10 1 78 6 1 0 0 0 +0 0 +0 1 2 1 01.8399 00.7224 00.6266 0 0 0
10 1 79 39 0 1 1 1 +1 0 +1 1 1 1 01.7307 00.8254 00.4698 1 1 0
10 1 80 8 0 1 2 3 -1 1 -1 2 NaN NaN 01.7085 00.0000 00.0000 0 NaN NaN
10 2 01 39 0 1 1 1 +1 0 +1 1 2 1 01.7135 00.7287 01.5133 1 0 0
10 2 02 11 0 1 1 1 -1 0 -1 1 2 2 01.2673 01.4696 00.5915 1 0 0
10 2 03 2 0 1 2 1 +1 0 -1 1 2 1 00.7845 00.9909 01.9090 1 1 0
10 2 04 38 1 0 0 0 +0 0 +0 1 1 2 01.4071 00.6437 00.7918 0 0 0
10 2 05 48 1 0 0 0 +0 0 +0 1 1 1 00.8645 01.0034 01.0409 0 0 0
10 2 06 17 0 1 2 4 -1 1 +1 1 2 1 00.8797 00.6500 01.2782 1 1 1
10 2 07 10 0 1 1 1 -1 0 -1 1 2 1 02.1786 00.7586 02.7102 1 0 1
10 2 08 47 0 1 1 1 +1 1 +1 2 NaN NaN 01.3434 00.0000 00.0000 0 NaN NaN
10 2 09 7 1 0 0 0 +0 0 +0 1 1 1 01.7291 00.6158 00.9094 0 0 0
10 2 10 21 0 1 1 1 -1 0 +1 1 1 1 00.7212 01.9061 00.7382 1 1 1
10 2 11 46 1 0 0 0 +0 0 +0 2 NaN NaN 01.2130 00.0000 00.0000 1 NaN NaN
10 2 12 3 1 0 0 0 +0 0 +0 1 1 1 00.8996 00.6052 00.3699 0 0 0
10 2 13 31 0 1 1 4 -1 0 -1 1 1 2 02.6536 01.1978 01.3228 1 1 0
10 2 14 12 0 1 2 4 -1 1 -1 2 NaN NaN 01.3572 00.0000 00.0000 0 NaN NaN
10 2 15 48 0 1 1 1 +1 1 -1 2 NaN NaN 00.9103 00.0000 00.0000 0 NaN NaN
10 2 16 23 0 1 2 3 +1 0 +1 1 1 2 00.7695 00.6407 02.1653 1 0 1
10 2 17 41 0 1 1 1 +1 1 +1 2 NaN NaN 00.6922 00.0000 00.0000 0 NaN NaN
10 2 18 35 1 0 0 0 +0 0 +0 2 NaN NaN 01.0250 00.0000 00.0000 1 NaN NaN
10 2 19 26 0 1 2 1 -1 1 -1 2 NaN NaN 01.4562 00.0000 00.0000 0 NaN NaN
10 2 20 14 0 1 2 4 -1 0 -1 2 NaN NaN 01.6771 00.0000 00.0000 0 NaN NaN
10 2 21 25 0 1 2 3 -1 0 -1 1 2 1 01.0248 00.5807 01.8036 1 1 1
10 2 22 28 0 1 2 4 +1 1 +1 2 NaN NaN 00.9858 00.0000 00.0000 0 NaN NaN
10 2 23 19 0 1 2 3 -1 1 +1 2 NaN NaN 00.6189 00.0000 00.0000 0 NaN NaN
10 2 24 5 0 1 2 3 -1 0 +1 1 1 1 01.6113 01.1749 00.5973 1 0 1
10 2 25 15 0 1 1 3 -1 0 -1 2 NaN NaN 00.8543 00.0000 00.0000 0 NaN NaN
10 2 26 30 0 1 2 1 +1 1 -1 2 NaN NaN 00.5886 00.0000 00.0000 0 NaN NaN
10 2 27 1 0 1 2 4 +1 1 -1 2 NaN NaN 00.7982 00.0000 00.0000 0 NaN NaN
10 2 28 6 1 0 0 0 +0 0 +0 1 1 2 01.0630 00.9057 01.0114 0 0 0
10 2 29 4 0 1 1 4 +1 1 -1 2 NaN NaN 00.5143 00.0000 00.0000 0 NaN NaN
10 2 30 24 0 1 2 3 +1 1 -1 2 NaN NaN 02.5024 00.0000 00.0000 0 NaN NaN
10 2 31 7 0 1 1 1 -1 1 +1 1 1 1 02.1031 01.1825 01.5962 1 1 1
10 2 32 26 0 1 1 1 +1 0 +1 2 NaN NaN 00.6593 00.0000 00.0000 0 NaN NaN
10 2 33 27 0 1 1 4 -1 1 +1 2 NaN NaN 00.4977 00.0000 00.0000 0 NaN NaN
10 2 34 33 0 1 2 1 -1 1 +1 2 NaN NaN 00.9504 00.0000 00.0000 0 NaN NaN
10 2 35 42 0 1 1 4 +1 1 +1 2 NaN NaN 00.6809 00.0000 00.0000 0 NaN NaN
10 2 36 31 0 1 1 3 +1 1 +1 2 NaN NaN 00.4545 00.0000 00.0000 0 NaN NaN
10 2 37 39 0 1 2 3 +1 1 +1 2 NaN NaN 00.6700 00.0000 00.0000 0 NaN NaN
10 2 38 4 0 1 1 4 +1 0 -1 1 2 2 00.9564 01.6358 01.8227 1 0 1
10 2 39 44 0 1 2 1 -1 1 -1 2 NaN NaN 00.9402 00.0000 00.0000 0 NaN NaN
10 2 40 47 0 1 1 1 +1 0 -1 1 1 2 00.6709 04.1782 00.8340 1 1 1
10 2 41 45 0 1 2 1 -1 0 -1 1 1 1 01.8341 01.4045 00.8332 1 0 1
10 2 42 21 0 1 1 1 -1 1 -1 2 NaN NaN 00.7604 00.0000 00.0000 0 NaN NaN
10 2 43 13 0 1 2 1 +1 1 -1 2 NaN NaN 00.5467 00.0000 00.0000 0 NaN NaN
10 2 44 27 0 1 1 3 +1 0 -1 2 NaN NaN 01.3332 00.0000 00.0000 0 NaN NaN
10 2 45 3 0 1 1 1 +1 0 -1 1 2 2 00.8711 03.3777 01.0919 1 0 1
10 2 46 18 0 1 2 4 -1 0 +1 1 2 2 01.0883 00.7702 01.1374 1 1 0
10 2 47 24 0 1 1 4 +1 0 +1 1 1 1 00.9242 00.5331 00.9261 1 1 0
10 2 48 10 0 1 1 3 -1 1 -1 2 NaN NaN 00.4492 00.0000 00.0000 0 NaN NaN
10 2 49 16 0 1 2 1 +1 0 +1 2 NaN NaN 00.8086 00.0000 00.0000 0 NaN NaN
10 2 50 2 1 0 0 0 +0 0 +0 1 1 1 01.2808 01.1303 00.9061 0 0 0
10 2 51 34 1 0 0 0 +0 0 +0 2 NaN NaN 00.7347 00.0000 00.0000 1 NaN NaN
10 2 52 43 1 0 0 0 +0 0 +0 1 1 2 03.9935 01.6020 00.8301 0 0 0
10 2 53 33 1 0 0 0 +0 0 +0 2 NaN NaN 00.7089 00.0000 00.0000 1 NaN NaN
10 2 54 32 1 0 0 0 +0 0 +0 2 NaN NaN 00.8811 00.0000 00.0000 1 NaN NaN
10 2 55 35 0 1 2 1 -1 1 +1 2 NaN NaN 00.5824 00.0000 00.0000 0 NaN NaN
10 2 56 16 0 1 1 4 -1 1 -1 2 NaN NaN 00.4876 00.0000 00.0000 0 NaN NaN
10 2 57 37 1 0 0 0 +0 0 +0 2 NaN NaN 00.4770 00.0000 00.0000 1 NaN NaN
10 2 58 44 0 1 2 4 +1 0 +1 2 NaN NaN 00.7703 00.0000 00.0000 0 NaN NaN
10 2 59 17 0 1 2 1 +1 0 -1 1 2 2 00.6519 00.2078 00.9822 1 1 1
10 2 60 42 0 1 2 1 -1 0 +1 2 NaN NaN 00.7906 00.0000 00.0000 0 NaN NaN
10 2 61 9 0 1 1 3 -1 1 +1 2 NaN NaN 00.7040 00.0000 00.0000 0 NaN NaN
10 2 62 19 0 1 1 3 -1 0 +1 2 NaN NaN 00.8122 00.0000 00.0000 0 NaN NaN
10 2 63 9 1 0 0 0 +0 0 +0 1 1 2 02.3877 01.0230 00.5149 0 0 0
10 2 64 8 0 1 2 3 -1 1 -1 2 NaN NaN 00.4078 00.0000 00.0000 0 NaN NaN
10 2 65 36 0 1 1 1 -1 1 -1 2 NaN NaN 00.6413 00.0000 00.0000 0 NaN NaN
10 2 66 34 0 1 1 3 +1 0 +1 2 NaN NaN 03.0564 00.0000 00.0000 0 NaN NaN
10 2 67 6 0 1 1 4 -1 0 +1 2 NaN NaN 00.8107 00.0000 00.0000 0 NaN NaN
10 2 68 40 0 1 2 1 -1 0 -1 1 2 2 00.9942 00.3756 00.9350 1 1 0
10 2 69 18 0 1 2 1 +1 1 +1 2 NaN NaN 00.7135 00.0000 00.0000 0 NaN NaN
10 2 70 23 0 1 1 1 +1 1 -1 2 NaN NaN 00.4689 00.0000 00.0000 0 NaN NaN
10 2 71 13 0 1 1 1 -1 0 +1 1 2 2 04.2196 00.9223 00.8990 1 0 0
10 2 72 40 1 0 0 0 +0 0 +0 2 NaN NaN 00.4397 00.0000 00.0000 1 NaN NaN
10 2 73 29 0 1 1 3 +1 1 -1 2 NaN NaN 00.3993 00.0000 00.0000 0 NaN NaN
10 2 74 25 0 1 2 1 +1 1 +1 2 NaN NaN 00.5367 00.0000 00.0000 0 NaN NaN
10 2 75 38 0 1 2 1 -1 0 +1 2 NaN NaN 00.7007 00.0000 00.0000 0 NaN NaN
10 2 76 8 0 1 2 1 +1 0 +1 1 1 1 01.1770 01.1749 00.8371 1 0 0
10 2 77 28 1 0 0 0 +0 0 +0 1 2 2 00.7965 01.0503 00.4456 0 0 0
10 2 78 37 0 1 2 4 +1 0 -1 1 2 2 00.7883 01.2507 00.8618 1 1 1
10 2 79 20 0 1 2 3 +1 0 -1 2 NaN NaN 00.7870 00.0000 00.0000 0 NaN NaN
10 2 80 11 0 1 1 1 -1 1 +1 2 NaN NaN 00.4604 00.0000 00.0000 0 NaN NaN
10 3 01 41 0 1 1 1 +1 1 +1 2 NaN NaN 02.4543 00.0000 00.0000 0 NaN NaN
10 3 02 34 0 1 1 3 +1 0 +1 1 1 1 01.5773 01.1741 00.9964 1 1 0
10 3 03 48 0 1 1 1 +1 1 -1 2 NaN NaN 00.5969 00.0000 00.0000 0 NaN NaN
10 3 04 27 0 1 1 4 -1 1 +1 2 NaN NaN 00.5020 00.0000 00.0000 0 NaN NaN
10 3 05 40 1 0 0 0 +0 0 +0 2 NaN NaN 03.1788 00.0000 00.0000 1 NaN NaN
10 3 06 3 0 1 1 1 +1 0 -1 1 1 1 00.7358 01.2964 00.7930 1 1 0
10 3 07 18 0 1 2 1 +1 1 +1 2 NaN NaN 00.4652 00.0000 00.0000 0 NaN NaN
10 3 08 28 1 0 0 0 +0 0 +0 1 2 2 01.2079 00.9329 00.9411 0 0 0
10 3 09 33 0 1 2 1 -1 1 +1 1 1 1 00.9437 02.8232 01.0243 1 0 1
10 3 10 21 0 1 1 1 -1 1 -1 2 NaN NaN 00.5114 00.0000 00.0000 0 NaN NaN
10 3 11 25 0 1 2 3 -1 0 -1 1 2 1 00.8993 00.3489 01.0216 1 1 1
10 3 12 36 0 1 1 1 -1 1 -1 2 NaN NaN 00.8611 00.0000 00.0000 0 NaN NaN
10 3 13 38 1 0 0 0 +0 0 +0 2 NaN NaN 00.6745 00.0000 00.0000 1 NaN NaN
10 3 14 40 0 1 2 1 -1 0 -1 1 2 2 00.8001 00.5259 00.5350 1 1 0
10 3 15 14 0 1 2 4 -1 0 -1 2 NaN NaN 00.7468 00.0000 00.0000 0 NaN NaN
10 3 16 37 0 1 2 4 +1 0 -1 1 2 2 00.6130 00.8426 01.5423 1 1 1
10 3 17 3 1 0 0 0 +0 0 +0 2 NaN NaN 00.6715 00.0000 00.0000 1 NaN NaN
10 3 18 35 0 1 2 1 -1 1 +1 1 2 2 01.8691 01.0862 01.2482 1 1 0
10 3 19 18 0 1 2 4 -1 0 +1 1 2 2 00.8222 00.6431 00.5033 1 1 0
10 3 20 17 0 1 2 4 -1 1 +1 2 NaN NaN 01.1646 00.0000 00.0000 0 NaN NaN
10 3 21 11 0 1 1 1 -1 1 +1 2 NaN NaN 00.8060 00.0000 00.0000 0 NaN NaN
10 3 22 30 0 1 2 1 +1 1 -1 2 NaN NaN 00.5741 00.0000 00.0000 0 NaN NaN
10 3 23 47 0 1 1 1 +1 0 -1 2 NaN NaN 03.5840 00.0000 00.0000 0 NaN NaN
10 3 24 11 0 1 1 1 -1 0 -1 1 1 1 00.8840 00.8783 00.4886 1 1 1
10 3 25 13 0 1 1 1 -1 0 +1 1 1 1 01.0867 05.3286 00.9131 1 1 1
10 3 26 8 0 1 2 3 -1 1 -1 2 NaN NaN 00.6608 00.0000 00.0000 0 NaN NaN
10 3 27 16 0 1 1 4 -1 1 -1 2 NaN NaN 00.4352 00.0000 00.0000 0 NaN NaN
10 3 28 44 0 1 2 4 +1 0 +1 2 NaN NaN 00.7634 00.0000 00.0000 0 NaN NaN
10 3 29 44 0 1 2 1 -1 1 -1 2 NaN NaN 00.4217 00.0000 00.0000 0 NaN NaN
10 3 30 38 0 1 2 1 -1 0 +1 2 NaN NaN 00.5265 00.0000 00.0000 0 NaN NaN
10 3 31 45 0 1 2 1 -1 0 -1 1 2 2 00.8178 00.6228 00.3401 1 1 0
10 3 32 7 0 1 1 1 -1 1 +1 1 1 2 00.5120 01.7696 00.6549 1 1 0
10 3 33 47 0 1 1 1 +1 1 +1 2 NaN NaN 00.5099 00.0000 00.0000 0 NaN NaN
10 3 34 2 0 1 2 1 +1 0 -1 1 2 2 00.8825 01.1327 01.2127 1 1 1
10 3 35 35 1 0 0 0 +0 0 +0 2 NaN NaN 00.8199 00.0000 00.0000 1 NaN NaN
10 3 36 32 1 0 0 0 +0 0 +0 2 NaN NaN 00.8119 00.0000 00.0000 1 NaN NaN
10 3 37 17 0 1 2 1 +1 0 -1 1 1 2 00.6754 02.1021 01.6774 1 0 1
10 3 38 43 1 0 0 0 +0 0 +0 2 NaN NaN 00.8650 00.0000 00.0000 1 NaN NaN
10 3 39 26 0 1 2 1 -1 1 -1 2 NaN NaN 00.5663 00.0000 00.0000 0 NaN NaN
10 3 40 42 0 1 2 1 -1 0 +1 2 NaN NaN 00.7443 00.0000 00.0000 0 NaN NaN
10 3 41 29 0 1 1 3 +1 1 -1 2 NaN NaN 00.5305 00.0000 00.0000 0 NaN NaN
10 3 42 10 0 1 1 3 -1 1 -1 2 NaN NaN 00.7739 00.0000 00.0000 0 NaN NaN
10 3 43 24 0 1 2 3 +1 1 -1 2 NaN NaN 00.4472 00.0000 00.0000 0 NaN NaN
10 3 44 46 1 0 0 0 +0 0 +0 2 NaN NaN 00.9026 00.0000 00.0000 1 NaN NaN
10 3 45 12 0 1 2 4 -1 1 -1 2 NaN NaN 00.7627 00.0000 00.0000 0 NaN NaN
10 3 46 23 0 1 2 3 +1 0 +1 1 1 1 00.5801 00.7150 01.2123 1 0 0
10 3 47 8 0 1 2 1 +1 0 +1 2 NaN NaN 00.4829 00.0000 00.0000 0 NaN NaN
10 3 48 1 0 1 2 4 +1 1 -1 2 NaN NaN 00.6168 00.0000 00.0000 0 NaN NaN
10 3 49 6 0 1 1 4 -1 0 +1 2 NaN NaN 00.6973 00.0000 00.0000 0 NaN NaN
10 3 50 4 0 1 1 4 +1 0 -1 1 2 2 00.5658 01.3893 00.4186 1 0 1
10 3 51 2 1 0 0 0 +0 0 +0 2 NaN NaN 00.4107 00.0000 00.0000 1 NaN NaN
10 3 52 7 1 0 0 0 +0 0 +0 2 NaN NaN 00.6589 00.0000 00.0000 1 NaN NaN
10 3 53 19 0 1 2 3 -1 1 +1 2 NaN NaN 00.7533 00.0000 00.0000 0 NaN NaN
10 3 54 25 0 1 2 1 +1 1 +1 2 NaN NaN 00.4602 00.0000 00.0000 0 NaN NaN
10 3 55 26 0 1 1 1 +1 0 +1 1 1 2 00.5143 00.6518 01.5359 1 1 1
10 3 56 42 0 1 1 4 +1 1 +1 2 NaN NaN 00.4413 00.0000 00.0000 0 NaN NaN
10 3 57 5 0 1 2 3 -1 0 +1 1 2 1 00.7688 00.9919 00.6139 1 1 1
10 3 58 31 0 1 1 3 +1 1 +1 2 NaN NaN 00.6139 00.0000 00.0000 0 NaN NaN
10 3 59 10 0 1 1 1 -1 0 -1 1 1 2 01.0936 00.9669 00.4774 1 1 0
10 3 60 48 1 0 0 0 +0 0 +0 2 NaN NaN 00.5948 00.0000 00.0000 1 NaN NaN
10 3 61 19 0 1 1 3 -1 0 +1 2 NaN NaN 06.5314 00.0000 00.0000 0 NaN NaN
10 3 62 9 0 1 1 3 -1 1 +1 2 NaN NaN 00.4445 00.0000 00.0000 0 NaN NaN
10 3 63 24 0 1 1 4 +1 0 +1 1 1 1 01.0120 01.1768 01.2544 1 1 0
10 3 64 33 1 0 0 0 +0 0 +0 1 1 2 01.3242 00.9484 00.6999 0 0 0
10 3 65 31 0 1 1 4 -1 0 -1 1 1 2 02.5847 01.3078 01.7475 1 1 0
10 3 66 39 0 1 1 1 +1 0 +1 1 2 2 01.3496 00.6523 01.0884 1 0 1
10 3 67 20 0 1 2 3 +1 0 -1 2 NaN NaN 00.5412 00.0000 00.0000 0 NaN NaN
10 3 68 27 0 1 1 3 +1 0 -1 2 NaN NaN 00.5125 00.0000 00.0000 0 NaN NaN
10 3 69 34 1 0 0 0 +0 0 +0 2 NaN NaN 00.9326 00.0000 00.0000 1 NaN NaN
10 3 70 23 0 1 1 1 +1 1 -1 2 NaN NaN 00.5031 00.0000 00.0000 0 NaN NaN
10 3 71 16 0 1 2 1 +1 0 +1 2 NaN NaN 00.8764 00.0000 00.0000 0 NaN NaN
10 3 72 28 0 1 2 4 +1 1 +1 2 NaN NaN 00.7219 00.0000 00.0000 0 NaN NaN
10 3 73 9 1 0 0 0 +0 0 +0 1 2 2 01.0054 02.5306 00.4399 0 0 0
10 3 74 13 0 1 2 1 +1 1 -1 2 NaN NaN 00.3993 00.0000 00.0000 0 NaN NaN
10 3 75 6 1 0 0 0 +0 0 +0 2 NaN NaN 00.3928 00.0000 00.0000 1 NaN NaN
10 3 76 39 0 1 2 3 +1 1 +1 2 NaN NaN 00.5937 00.0000 00.0000 0 NaN NaN
10 3 77 15 0 1 1 3 -1 0 -1 2 NaN NaN 00.5789 00.0000 00.0000 0 NaN NaN
10 3 78 4 0 1 1 4 +1 1 -1 2 NaN NaN 01.2361 00.0000 00.0000 0 NaN NaN
10 3 79 37 1 0 0 0 +0 0 +0 2 NaN NaN 00.5385 00.0000 00.0000 1 NaN NaN
10 3 80 21 0 1 1 1 -1 0 +1 1 1 2 00.7500 01.8218 00.8170 1 1 0
10 4 01 18 0 1 2 1 +1 1 +1 2 NaN NaN 00.9372 00.0000 00.0000 0 NaN NaN
10 4 02 3 0 1 1 1 +1 0 -1 1 2 2 00.8277 00.6481 00.9721 1 0 1
10 4 03 31 0 1 1 4 -1 0 -1 1 1 1 01.7092 00.6452 00.5374 1 1 1
10 4 04 39 0 1 1 1 +1 0 +1 2 NaN NaN 01.0847 00.0000 00.0000 0 NaN NaN
10 4 05 5 0 1 2 3 -1 0 +1 1 2 2 00.6495 01.0056 00.7389 1 1 0
10 4 06 48 1 0 0 0 +0 0 +0 2 NaN NaN 01.2624 00.0000 00.0000 1 NaN NaN
10 4 07 18 0 1 2 4 -1 0 +1 2 NaN NaN 00.6436 00.0000 00.0000 0 NaN NaN
10 4 08 29 0 1 1 3 +1 1 -1 1 1 2 05.3468 00.7224 00.6746 1 1 1
10 4 09 19 0 1 1 3 -1 0 +1 2 NaN NaN 00.7528 00.0000 00.0000 0 NaN NaN
10 4 10 27 0 1 1 3 +1 0 -1 2 NaN NaN 00.5070 00.0000 00.0000 0 NaN NaN
10 4 11 37 0 1 2 4 +1 0 -1 1 1 1 00.7357 01.6481 01.4824 1 0 0
10 4 12 10 0 1 1 3 -1 1 -1 2 NaN NaN 00.6618 00.0000 00.0000 0 NaN NaN
10 4 13 42 0 1 2 1 -1 0 +1 2 NaN NaN 00.6754 00.0000 00.0000 0 NaN NaN
10 4 14 32 1 0 0 0 +0 0 +0 2 NaN NaN 00.7206 00.0000 00.0000 1 NaN NaN
10 4 15 16 0 1 2 1 +1 0 +1 2 NaN NaN 00.4448 00.0000 00.0000 0 NaN NaN
10 4 16 12 0 1 2 4 -1 1 -1 2 NaN NaN 00.6122 00.0000 00.0000 0 NaN NaN
10 4 17 25 0 1 2 3 -1 0 -1 1 2 2 01.0441 00.7912 00.5658 1 1 0
10 4 18 47 0 1 1 1 +1 1 +1 2 NaN NaN 00.7923 00.0000 00.0000 0 NaN NaN
10 4 19 40 0 1 2 1 -1 0 -1 1 2 2 00.8173 00.4623 00.6180 1 1 0
10 4 20 4 0 1 1 4 +1 0 -1 1 2 2 00.9864 00.6566 01.6353 1 0 1
10 4 21 6 0 1 1 4 -1 0 +1 1 1 2 01.2423 01.0774 01.4153 1 1 0
10 4 22 31 0 1 1 3 +1 1 +1 2 NaN NaN 00.5982 00.0000 00.0000 0 NaN NaN
10 4 23 2 1 0 0 0 +0 0 +0 2 NaN NaN 02.0393 00.0000 00.0000 1 NaN NaN
10 4 24 4 0 1 1 4 +1 1 -1 2 NaN NaN 00.6837 00.0000 00.0000 0 NaN NaN
10 4 25 41 0 1 1 1 +1 1 +1 2 NaN NaN 00.5687 00.0000 00.0000 0 NaN NaN
10 4 26 34 1 0 0 0 +0 0 +0 2 NaN NaN 00.9706 00.0000 00.0000 1 NaN NaN
10 4 27 9 0 1 1 3 -1 1 +1 2 NaN NaN 00.5243 00.0000 00.0000 0 NaN NaN
10 4 28 45 0 1 2 1 -1 0 -1 1 1 1 00.6884 00.6909 00.4056 1 0 1
10 4 29 10 0 1 1 1 -1 0 -1 1 1 2 00.6711 00.7706 01.3298 1 1 0
10 4 30 33 0 1 2 1 -1 1 +1 2 NaN NaN 00.5641 00.0000 00.0000 0 NaN NaN
10 4 31 13 0 1 2 1 +1 1 -1 2 NaN NaN 01.0946 00.0000 00.0000 0 NaN NaN
10 4 32 24 0 1 2 3 +1 1 -1 2 NaN NaN 00.5789 00.0000 00.0000 0 NaN NaN
10 4 33 21 0 1 1 1 -1 0 +1 1 1 2 00.7402 00.6440 00.6648 1 1 0
10 4 34 37 1 0 0 0 +0 0 +0 2 NaN NaN 00.5345 00.0000 00.0000 1 NaN NaN
10 4 35 30 0 1 2 1 +1 1 -1 2 NaN NaN 00.8258 00.0000 00.0000 0 NaN NaN
10 4 36 28 1 0 0 0 +0 0 +0 1 1 2 00.6411 00.7099 00.7591 0 0 0
10 4 37 44 0 1 2 1 -1 1 -1 2 NaN NaN 00.5133 00.0000 00.0000 0 NaN NaN
10 4 38 28 0 1 2 4 +1 1 +1 2 NaN NaN 00.4693 00.0000 00.0000 0 NaN NaN
10 4 39 40 1 0 0 0 +0 0 +0 2 NaN NaN 00.3961 00.0000 00.0000 1 NaN NaN
10 4 40 11 0 1 1 1 -1 1 +1 2 NaN NaN 00.3730 00.0000 00.0000 0 NaN NaN
10 4 41 14 0 1 2 4 -1 0 -1 2 NaN NaN 00.4312 00.0000 00.0000 0 NaN NaN
10 4 42 27 0 1 1 4 -1 1 +1 2 NaN NaN 00.4553 00.0000 00.0000 0 NaN NaN
10 4 43 11 0 1 1 1 -1 0 -1 1 2 2 00.5748 02.7583 00.8184 1 0 0
10 4 44 47 0 1 1 1 +1 0 -1 2 NaN NaN 00.8104 00.0000 00.0000 0 NaN NaN
10 4 45 39 0 1 2 3 +1 1 +1 2 NaN NaN 00.4818 00.0000 00.0000 0 NaN NaN
10 4 46 2 0 1 2 1 +1 0 -1 1 1 1 00.7760 00.6464 01.6265 1 0 0
10 4 47 20 0 1 2 3 +1 0 -1 2 NaN NaN 00.7363 00.0000 00.0000 0 NaN NaN
10 4 48 6 1 0 0 0 +0 0 +0 2 NaN NaN 00.5079 00.0000 00.0000 1 NaN NaN
10 4 49 26 0 1 1 1 +1 0 +1 2 NaN NaN 00.6887 00.0000 00.0000 0 NaN NaN
10 4 50 26 0 1 2 1 -1 1 -1 2 NaN NaN 00.3977 00.0000 00.0000 0 NaN NaN
10 4 51 16 0 1 1 4 -1 1 -1 2 NaN NaN 00.3585 00.0000 00.0000 0 NaN NaN
10 4 52 43 1 0 0 0 +0 0 +0 2 NaN NaN 00.7688 00.0000 00.0000 1 NaN NaN
10 4 53 21 0 1 1 1 -1 1 -1 2 NaN NaN 00.3629 00.0000 00.0000 0 NaN NaN
10 4 54 1 0 1 2 4 +1 1 -1 2 NaN NaN 00.3254 00.0000 00.0000 0 NaN NaN
10 4 55 7 1 0 0 0 +0 0 +0 1 1 2 01.0256 00.2301 00.8598 0 0 0
10 4 56 3 1 0 0 0 +0 0 +0 2 NaN NaN 00.4177 00.0000 00.0000 1 NaN NaN
10 4 57 38 1 0 0 0 +0 0 +0 2 NaN NaN 00.4107 00.0000 00.0000 1 NaN NaN
10 4 58 24 0 1 1 4 +1 0 +1 1 1 1 00.6588 00.3263 01.3675 1 1 0
10 4 59 8 0 1 2 3 -1 1 -1 2 NaN NaN 00.3759 00.0000 00.0000 0 NaN NaN
10 4 60 48 0 1 1 1 +1 1 -1 2 NaN NaN 00.3541 00.0000 00.0000 0 NaN NaN
10 4 61 8 0 1 2 1 +1 0 +1 2 NaN NaN 00.8610 00.0000 00.0000 0 NaN NaN
10 4 62 38 0 1 2 1 -1 0 +1 2 NaN NaN 00.6583 00.0000 00.0000 0 NaN NaN
10 4 63 25 0 1 2 1 +1 1 +1 2 NaN NaN 01.3287 00.0000 00.0000 0 NaN NaN
10 4 64 23 0 1 1 1 +1 1 -1 1 1 2 00.7225 00.8342 00.6562 1 1 1
10 4 65 42 0 1 1 4 +1 1 +1 2 NaN NaN 00.4146 00.0000 00.0000 0 NaN NaN
10 4 66 13 0 1 1 1 -1 0 +1 1 1 1 00.7747 02.3257 01.2028 1 1 1
10 4 67 9 1 0 0 0 +0 0 +0 1 1 1 01.1160 00.3645 01.3566 0 0 0
10 4 68 46 1 0 0 0 +0 0 +0 2 NaN NaN 00.4455 00.0000 00.0000 1 NaN NaN
10 4 69 19 0 1 2 3 -1 1 +1 2 NaN NaN 00.3889 00.0000 00.0000 0 NaN NaN
10 4 70 33 1 0 0 0 +0 0 +0 2 NaN NaN 00.8626 00.0000 00.0000 1 NaN NaN
10 4 71 44 0 1 2 4 +1 0 +1 2 NaN NaN 00.5638 00.0000 00.0000 0 NaN NaN
10 4 72 34 0 1 1 3 +1 0 +1 2 NaN NaN 02.4216 00.0000 00.0000 0 NaN NaN
10 4 73 35 1 0 0 0 +0 0 +0 2 NaN NaN 00.8906 00.0000 00.0000 1 NaN NaN
10 4 74 7 0 1 1 1 -1 1 +1 2 NaN NaN 00.6073 00.0000 00.0000 0 NaN NaN
10 4 75 35 0 1 2 1 -1 1 +1 2 NaN NaN 00.4638 00.0000 00.0000 0 NaN NaN
10 4 76 17 0 1 2 1 +1 0 -1 1 1 2 00.7738 00.6450 00.5051 1 0 1
10 4 77 36 0 1 1 1 -1 1 -1 2 NaN NaN 00.3983 00.0000 00.0000 0 NaN NaN
10 4 78 23 0 1 2 3 +1 0 +1 1 1 2 00.5674 00.6390 00.5147 1 0 1
10 4 79 17 0 1 2 4 -1 1 +1 2 NaN NaN 00.5036 00.0000 00.0000 0 NaN NaN
10 4 80 15 0 1 1 3 -1 0 -1 2 NaN NaN 00.4768 00.0000 00.0000 0 NaN NaN
10 5 01 5 0 1 2 3 -1 0 +1 1 1 1 00.6526 00.3846 01.7279 1 0 1
10 5 02 28 0 1 2 4 +1 1 +1 2 NaN NaN 00.5934 00.0000 00.0000 0 NaN NaN
10 5 03 38 0 1 2 1 -1 0 +1 2 NaN NaN 00.5466 00.0000 00.0000 0 NaN NaN
10 5 04 44 0 1 2 1 -1 1 -1 2 NaN NaN 00.5338 00.0000 00.0000 0 NaN NaN
10 5 05 31 0 1 1 4 -1 0 -1 2 NaN NaN 00.6974 00.0000 00.0000 0 NaN NaN
10 5 06 25 0 1 2 3 -1 0 -1 1 2 2 00.6142 00.4117 00.4256 1 1 0
10 5 07 26 0 1 1 1 +1 0 +1 1 1 2 00.9937 00.7431 00.7428 1 1 1
10 5 08 21 0 1 1 1 -1 0 +1 1 2 2 00.7850 00.6715 00.4823 1 0 0
10 5 09 9 0 1 1 3 -1 1 +1 1 1 2 00.4889 01.7480 00.7300 1 1 0
10 5 10 39 0 1 2 3 +1 1 +1 2 NaN NaN 00.4049 00.0000 00.0000 0 NaN NaN
10 5 11 43 1 0 0 0 +0 0 +0 2 NaN NaN 00.7177 00.0000 00.0000 1 NaN NaN
10 5 12 24 0 1 1 4 +1 0 +1 1 1 2 00.4892 01.3323 00.3958 1 1 1
10 5 13 23 0 1 1 1 +1 1 -1 2 NaN NaN 00.4047 00.0000 00.0000 0 NaN NaN
10 5 14 31 0 1 1 3 +1 1 +1 2 NaN NaN 00.3176 00.0000 00.0000 0 NaN NaN
10 5 15 37 1 0 0 0 +0 0 +0 2 NaN NaN 00.3138 00.0000 00.0000 1 NaN NaN
10 5 16 15 0 1 1 3 -1 0 -1 2 NaN NaN 00.4388 00.0000 00.0000 0 NaN NaN
10 5 17 30 0 1 2 1 +1 1 -1 2 NaN NaN 00.3669 00.0000 00.0000 0 NaN NaN
10 5 18 10 0 1 1 1 -1 0 -1 1 2 2 00.6339 00.2868 01.6184 1 0 0
10 5 19 2 1 0 0 0 +0 0 +0 2 NaN NaN 00.5040 00.0000 00.0000 1 NaN NaN
10 5 20 29 0 1 1 3 +1 1 -1 2 NaN NaN 00.4454 00.0000 00.0000 0 NaN NaN
10 5 21 4 0 1 1 4 +1 1 -1 2 NaN NaN 00.4042 00.0000 00.0000 0 NaN NaN
10 5 22 1 0 1 2 4 +1 1 -1 2 NaN NaN 00.3010 00.0000 00.0000 0 NaN NaN
10 5 23 11 0 1 1 1 -1 1 +1 2 NaN NaN 00.4908 00.0000 00.0000 0 NaN NaN
10 5 24 41 0 1 1 1 +1 1 +1 1 1 1 02.1122 01.0147 01.6756 1 1 0
10 5 25 12 0 1 2 4 -1 1 -1 2 NaN NaN 00.4632 00.0000 00.0000 0 NaN NaN
10 5 26 26 0 1 2 1 -1 1 -1 2 NaN NaN 00.3733 00.0000 00.0000 0 NaN NaN
10 5 27 37 0 1 2 4 +1 0 -1 1 1 2 00.6557 01.6023 01.8720 1 0 1
10 5 28 11 0 1 1 1 -1 0 -1 1 2 2 00.5558 00.7709 00.9474 1 0 0
10 5 29 19 0 1 1 3 -1 0 +1 2 NaN NaN 00.6138 00.0000 00.0000 0 NaN NaN
10 5 30 25 0 1 2 1 +1 1 +1 2 NaN NaN 00.3902 00.0000 00.0000 0 NaN NaN
10 5 31 48 1 0 0 0 +0 0 +0 2 NaN NaN 00.5599 00.0000 00.0000 1 NaN NaN
10 5 32 40 1 0 0 0 +0 0 +0 2 NaN NaN 00.4345 00.0000 00.0000 1 NaN NaN
10 5 33 35 1 0 0 0 +0 0 +0 1 1 2 00.6345 06.5755 03.6274 0 0 0
10 5 34 35 0 1 2 1 -1 1 +1 2 NaN NaN 00.9735 00.0000 00.0000 0 NaN NaN
10 5 35 18 0 1 2 4 -1 0 +1 2 NaN NaN 00.7831 00.0000 00.0000 0 NaN NaN
10 5 36 23 0 1 2 3 +1 0 +1 1 1 2 00.6167 00.9422 00.7742 1 0 1
10 5 37 7 0 1 1 1 -1 1 +1 2 NaN NaN 00.7358 00.0000 00.0000 0 NaN NaN
10 5 38 6 1 0 0 0 +0 0 +0 2 NaN NaN 00.4108 00.0000 00.0000 1 NaN NaN
10 5 39 46 1 0 0 0 +0 0 +0 2 NaN NaN 00.5468 00.0000 00.0000 1 NaN NaN
10 5 40 14 0 1 2 4 -1 0 -1 2 NaN NaN 00.5174 00.0000 00.0000 0 NaN NaN
10 5 41 33 1 0 0 0 +0 0 +0 1 2 1 01.0654 00.7800 00.6505 0 0 0
10 5 42 19 0 1 2 3 -1 1 +1 2 NaN NaN 00.3615 00.0000 00.0000 0 NaN NaN
10 5 43 42 0 1 2 1 -1 0 +1 2 NaN NaN 00.4838 00.0000 00.0000 0 NaN NaN
10 5 44 34 1 0 0 0 +0 0 +0 2 NaN NaN 03.0179 00.0000 00.0000 1 NaN NaN
10 5 45 18 0 1 2 1 +1 1 +1 2 NaN NaN 00.5172 00.0000 00.0000 0 NaN NaN
10 5 46 38 1 0 0 0 +0 0 +0 2 NaN NaN 00.5051 00.0000 00.0000 1 NaN NaN
10 5 47 34 0 1 1 3 +1 0 +1 2 NaN NaN 00.3978 00.0000 00.0000 0 NaN NaN
10 5 48 10 0 1 1 3 -1 1 -1 2 NaN NaN 00.5826 00.0000 00.0000 0 NaN NaN
10 5 49 21 0 1 1 1 -1 1 -1 2 NaN NaN 01.0958 00.0000 00.0000 0 NaN NaN
10 5 50 3 0 1 1 1 +1 0 -1 1 1 1 00.5312 00.8602 00.9672 1 1 0
10 5 51 40 0 1 2 1 -1 0 -1 2 NaN NaN 00.5524 00.0000 00.0000 0 NaN NaN
10 5 52 3 1 0 0 0 +0 0 +0 2 NaN NaN 00.9394 00.0000 00.0000 1 NaN NaN
10 5 53 4 0 1 1 4 +1 0 -1 1 2 2 01.0862 01.1199 00.7844 1 0 1
10 5 54 27 0 1 1 4 -1 1 +1 2 NaN NaN 00.4892 00.0000 00.0000 0 NaN NaN
10 5 55 17 0 1 2 4 -1 1 +1 1 2 2 03.2306 01.8624 00.7275 1 1 0
10 5 56 44 0 1 2 4 +1 0 +1 2 NaN NaN 01.6343 00.0000 00.0000 0 NaN NaN
10 5 57 28 1 0 0 0 +0 0 +0 1 1 2 00.7440 01.0641 00.9226 0 0 0
10 5 58 2 0 1 2 1 +1 0 -1 1 1 2 00.5899 00.9646 00.6355 1 0 1
10 5 59 42 0 1 1 4 +1 1 +1 2 NaN NaN 00.4905 00.0000 00.0000 0 NaN NaN
10 5 60 9 1 0 0 0 +0 0 +0 2 NaN NaN 01.2319 00.0000 00.0000 1 NaN NaN
10 5 61 13 0 1 2 1 +1 1 -1 2 NaN NaN 00.5346 00.0000 00.0000 0 NaN NaN
10 5 62 8 0 1 2 3 -1 1 -1 2 NaN NaN 00.5705 00.0000 00.0000 0 NaN NaN
10 5 63 47 0 1 1 1 +1 0 -1 2 NaN NaN 00.7804 00.0000 00.0000 0 NaN NaN
10 5 64 8 0 1 2 1 +1 0 +1 2 NaN NaN 00.5332 00.0000 00.0000 0 NaN NaN
10 5 65 32 1 0 0 0 +0 0 +0 1 1 2 00.8725 00.7554 01.4743 0 0 0
10 5 66 36 0 1 1 1 -1 1 -1 2 NaN NaN 00.6394 00.0000 00.0000 0 NaN NaN
10 5 67 6 0 1 1 4 -1 0 +1 1 2 1 01.0866 00.5444 01.0007 1 0 1
10 5 68 48 0 1 1 1 +1 1 -1 2 NaN NaN 00.7130 00.0000 00.0000 0 NaN NaN
10 5 69 17 0 1 2 1 +1 0 -1 1 2 2 00.6293 00.9700 01.2169 1 1 1
10 5 70 13 0 1 1 1 -1 0 +1 1 2 1 00.6961 00.7943 00.5039 1 0 1
10 5 71 33 0 1 2 1 -1 1 +1 2 NaN NaN 00.6366 00.0000 00.0000 0 NaN NaN
10 5 72 27 0 1 1 3 +1 0 -1 2 NaN NaN 00.5238 00.0000 00.0000 0 NaN NaN
10 5 73 16 0 1 1 4 -1 1 -1 2 NaN NaN 00.3197 00.0000 00.0000 0 NaN NaN
10 5 74 16 0 1 2 1 +1 0 +1 2 NaN NaN 00.5246 00.0000 00.0000 0 NaN NaN
10 5 75 7 1 0 0 0 +0 0 +0 1 1 1 00.7367 00.7533 00.4001 0 0 0
10 5 76 20 0 1 2 3 +1 0 -1 2 NaN NaN 00.4588 00.0000 00.0000 0 NaN NaN
10 5 77 45 0 1 2 1 -1 0 -1 1 2 2 00.7214 00.6102 01.8161 1 1 0
10 5 78 39 0 1 1 1 +1 0 +1 1 1 1 00.8697 00.3686 01.0566 1 1 0
10 5 79 47 0 1 1 1 +1 1 +1 2 NaN NaN 00.3821 00.0000 00.0000 0 NaN NaN
10 5 80 24 0 1 2 3 +1 1 -1 2 NaN NaN 00.4396 00.0000 00.0000 0 NaN NaN
10 6 01 47 0 1 1 1 +1 0 -1 2 NaN NaN 00.7148 00.0000 00.0000 0 NaN NaN
10 6 02 21 0 1 1 1 -1 1 -1 2 NaN NaN 00.4869 00.0000 00.0000 0 NaN NaN
10 6 03 12 0 1 2 4 -1 1 -1 2 NaN NaN 00.5091 00.0000 00.0000 0 NaN NaN
10 6 04 24 0 1 1 4 +1 0 +1 1 1 2 00.6097 01.2233 00.8834 1 1 1
10 6 05 16 0 1 1 4 -1 1 -1 2 NaN NaN 00.3927 00.0000 00.0000 0 NaN NaN
10 6 06 35 1 0 0 0 +0 0 +0 2 NaN NaN 00.9464 00.0000 00.0000 1 NaN NaN
10 6 07 13 0 1 1 1 -1 0 +1 1 2 2 00.6602 00.9997 00.4929 1 0 0
10 6 08 43 1 0 0 0 +0 0 +0 2 NaN NaN 00.6257 00.0000 00.0000 1 NaN NaN
10 6 09 2 0 1 2 1 +1 0 -1 1 1 2 00.6414 00.4695 00.9614 1 0 1
10 6 10 31 0 1 1 4 -1 0 -1 1 2 2 00.6262 00.4871 00.7862 1 0 0
10 6 11 2 1 0 0 0 +0 0 +0 1 1 1 00.9709 00.9458 00.3772 0 0 0
10 6 12 25 0 1 2 3 -1 0 -1 1 2 2 00.9147 00.8435 02.8393 1 1 0
10 6 13 42 0 1 1 4 +1 1 +1 2 NaN NaN 00.8908 00.0000 00.0000 0 NaN NaN
10 6 14 15 0 1 1 3 -1 0 -1 2 NaN NaN 00.5114 00.0000 00.0000 0 NaN NaN
10 6 15 32 1 0 0 0 +0 0 +0 1 1 2 00.7234 00.8672 01.2637 0 0 0
10 6 16 38 1 0 0 0 +0 0 +0 2 NaN NaN 00.4681 00.0000 00.0000 1 NaN NaN
10 6 17 34 0 1 1 3 +1 0 +1 2 NaN NaN 00.5062 00.0000 00.0000 0 NaN NaN
10 6 18 30 0 1 2 1 +1 1 -1 2 NaN NaN 00.5108 00.0000 00.0000 0 NaN NaN
10 6 19 8 0 1 2 1 +1 0 +1 2 NaN NaN 00.5949 00.0000 00.0000 0 NaN NaN
10 6 20 40 1 0 0 0 +0 0 +0 2 NaN NaN 00.4993 00.0000 00.0000 1 NaN NaN
10 6 21 26 0 1 1 1 +1 0 +1 2 NaN NaN 00.7447 00.0000 00.0000 0 NaN NaN
10 6 22 4 0 1 1 4 +1 0 -1 1 2 2 00.9150 00.5397 00.7247 1 0 1
10 6 23 6 1 0 0 0 +0 0 +0 2 NaN NaN 00.6564 00.0000 00.0000 1 NaN NaN
10 6 24 24 0 1 2 3 +1 1 -1 2 NaN NaN 00.4954 00.0000 00.0000 0 NaN NaN
10 6 25 23 0 1 1 1 +1 1 -1 2 NaN NaN 00.5962 00.0000 00.0000 0 NaN NaN
10 6 26 33 1 0 0 0 +0 0 +0 1 1 1 00.8685 01.5677 01.6451 0 0 0
10 6 27 13 0 1 2 1 +1 1 -1 2 NaN NaN 00.3703 00.0000 00.0000 0 NaN NaN
10 6 28 25 0 1 2 1 +1 1 +1 2 NaN NaN 00.3487 00.0000 00.0000 0 NaN NaN
10 6 29 37 1 0 0 0 +0 0 +0 2 NaN NaN 00.3283 00.0000 00.0000 1 NaN NaN
10 6 30 37 0 1 2 4 +1 0 -1 1 2 1 00.7566 00.6276 01.3373 1 1 0
10 6 31 34 1 0 0 0 +0 0 +0 2 NaN NaN 00.4596 00.0000 00.0000 1 NaN NaN
10 6 32 44 0 1 2 4 +1 0 +1 1 1 1 00.9143 01.0513 00.7827 1 0 0
10 6 33 46 1 0 0 0 +0 0 +0 2 NaN NaN 00.3115 00.0000 00.0000 1 NaN NaN
10 6 34 47 0 1 1 1 +1 1 +1 2 NaN NaN 00.5004 00.0000 00.0000 0 NaN NaN
10 6 35 40 0 1 2 1 -1 0 -1 1 2 1 00.7938 00.5516 01.1838 1 1 1
10 6 36 21 0 1 1 1 -1 0 +1 1 1 1 00.7119 01.0652 00.9718 1 1 1
10 6 37 19 0 1 1 3 -1 0 +1 2 NaN NaN 00.8935 00.0000 00.0000 0 NaN NaN
10 6 38 38 0 1 2 1 -1 0 +1 2 NaN NaN 00.8181 00.0000 00.0000 0 NaN NaN
10 6 39 1 0 1 2 4 +1 1 -1 2 NaN NaN 00.7775 00.0000 00.0000 0 NaN NaN
10 6 40 20 0 1 2 3 +1 0 -1 2 NaN NaN 00.5623 00.0000 00.0000 0 NaN NaN
10 6 41 35 0 1 2 1 -1 1 +1 2 NaN NaN 00.3727 00.0000 00.0000 0 NaN NaN
10 6 42 26 0 1 2 1 -1 1 -1 2 NaN NaN 00.3671 00.0000 00.0000 0 NaN NaN
10 6 43 3 1 0 0 0 +0 0 +0 2 NaN NaN 00.4574 00.0000 00.0000 1 NaN NaN
10 6 44 19 0 1 2 3 -1 1 +1 2 NaN NaN 00.8641 00.0000 00.0000 0 NaN NaN
10 6 45 9 1 0 0 0 +0 0 +0 1 1 1 00.8696 00.7845 00.3988 0 0 0
10 6 46 9 0 1 1 3 -1 1 +1 2 NaN NaN 00.3918 00.0000 00.0000 0 NaN NaN
10 6 47 14 0 1 2 4 -1 0 -1 2 NaN NaN 00.5933 00.0000 00.0000 0 NaN NaN
10 6 48 3 0 1 1 1 +1 0 -1 1 1 2 00.6424 00.7747 00.8537 1 1 1
10 6 49 17 0 1 2 4 -1 1 +1 2 NaN NaN 00.4445 00.0000 00.0000 0 NaN NaN
10 6 50 39 0 1 2 3 +1 1 +1 2 NaN NaN 00.4832 00.0000 00.0000 0 NaN NaN
10 6 51 7 1 0 0 0 +0 0 +0 2 NaN NaN 00.4085 00.0000 00.0000 1 NaN NaN
10 6 52 48 0 1 1 1 +1 1 -1 2 NaN NaN 02.7695 00.0000 00.0000 0 NaN NaN
10 6 53 18 0 1 2 1 +1 1 +1 2 NaN NaN 00.6791 00.0000 00.0000 0 NaN NaN
10 6 54 10 0 1 1 1 -1 0 -1 1 1 1 00.7241 00.3732 01.9572 1 1 1
10 6 55 31 0 1 1 3 +1 1 +1 2 NaN NaN 00.3812 00.0000 00.0000 0 NaN NaN
10 6 56 39 0 1 1 1 +1 0 +1 1 2 1 00.5828 00.5895 00.8833 1 0 0
10 6 57 27 0 1 1 4 -1 1 +1 2 NaN NaN 00.3611 00.0000 00.0000 0 NaN NaN
10 6 58 45 0 1 2 1 -1 0 -1 1 2 2 00.8033 00.9931 00.4545 1 1 0
10 6 59 48 1 0 0 0 +0 0 +0 1 1 1 00.7013 00.3671 00.9110 0 0 0
10 6 60 7 0 1 1 1 -1 1 +1 2 NaN NaN 00.4342 00.0000 00.0000 0 NaN NaN
10 6 61 28 1 0 0 0 +0 0 +0 1 1 1 00.6177 00.8471 00.6349 0 0 0
10 6 62 29 0 1 1 3 +1 1 -1 2 NaN NaN 00.3626 00.0000 00.0000 0 NaN NaN
10 6 63 8 0 1 2 3 -1 1 -1 2 NaN NaN 00.3890 00.0000 00.0000 0 NaN NaN
10 6 64 41 0 1 1 1 +1 1 +1 2 NaN NaN 00.3825 00.0000 00.0000 0 NaN NaN
10 6 65 28 0 1 2 4 +1 1 +1 2 NaN NaN 00.3921 00.0000 00.0000 0 NaN NaN
10 6 66 6 0 1 1 4 -1 0 +1 1 2 2 00.7857 00.5601 00.5997 1 0 0
10 6 67 18 0 1 2 4 -1 0 +1 1 2 1 01.2562 00.6909 00.8536 1 1 1
10 6 68 11 0 1 1 1 -1 1 +1 2 NaN NaN 00.5243 00.0000 00.0000 0 NaN NaN
10 6 69 42 0 1 2 1 -1 0 +1 2 NaN NaN 00.6243 00.0000 00.0000 0 NaN NaN
10 6 70 27 0 1 1 3 +1 0 -1 2 NaN NaN 00.5281 00.0000 00.0000 0 NaN NaN
10 6 71 33 0 1 2 1 -1 1 +1 2 NaN NaN 00.4201 00.0000 00.0000 0 NaN NaN
10 6 72 23 0 1 2 3 +1 0 +1 1 1 1 00.5729 00.4524 01.0410 1 0 0
10 6 73 4 0 1 1 4 +1 1 -1 2 NaN NaN 00.3993 00.0000 00.0000 0 NaN NaN
10 6 74 5 0 1 2 3 -1 0 +1 1 2 2 00.6162 00.8136 01.4668 1 1 0
10 6 75 44 0 1 2 1 -1 1 -1 1 2 2 00.4388 02.6907 01.7948 1 1 0
10 6 76 11 0 1 1 1 -1 0 -1 1 2 2 00.6096 00.2630 00.8751 1 0 0
10 6 77 17 0 1 2 1 +1 0 -1 1 1 2 00.5764 01.3034 00.5281 1 0 1
10 6 78 10 0 1 1 3 -1 1 -1 2 NaN NaN 00.5633 00.0000 00.0000 0 NaN NaN
10 6 79 16 0 1 2 1 +1 0 +1 2 NaN NaN 00.6772 00.0000 00.0000 0 NaN NaN
10 6 80 36 0 1 1 1 -1 1 -1 2 NaN NaN 00.3222 00.0000 00.0000 0 NaN NaN
