sub block trial obj foil exp maze DP turn attend pos resp1 resp2 resp3 RT1 RT2 RT3 correct1 correct2 correct3
Subject 09 -- attend vehicles
09 1 01 15 0 1 2 1 -1 0 -1 2 NaN NaN 01.4180 00.0000 00.0000 0 NaN NaN
09 1 02 38 0 1 2 3 -1 1 +1 1 1 2 01.3697 04.4799 01.6998 1 0 0
09 1 03 5 0 1 2 1 +1 0 -1 2 NaN NaN 01.2068 00.0000 00.0000 0 NaN NaN
09 1 04 24 0 1 2 3 +1 0 -1 1 2 2 00.9423 01.2859 01.9518 1 1 1
09 1 05 34 0 1 1 3 +1 0 +1 2 NaN NaN 00.9684 00.0000 00.0000 0 NaN NaN
09 1 06 35 0 1 1 3 -1 0 -1 1 1 1 01.0976 01.6748 01.6361 1 1 1
09 1 07 42 1 0 0 0 +0 0 +0 2 NaN NaN 00.6813 00.0000 00.0000 1 NaN NaN
09 1 08 7 1 0 0 0 +0 0 +0 1 1 2 00.8710 01.2181 01.0704 0 0 0
09 1 09 27 0 1 1 1 +1 1 +1 1 2 2 01.8038 00.8638 01.6908 1 0 1
09 1 10 1 1 0 0 0 +0 0 +0 1 1 1 00.8298 02.4422 00.9467 0 0 0
09 1 11 32 0 1 1 1 -1 0 -1 2 NaN NaN 00.7412 00.0000 00.0000 0 NaN NaN
09 1 12 25 0 1 1 3 +1 1 +1 2 NaN NaN 00.7033 00.0000 00.0000 0 NaN NaN
09 1 13 17 0 1 1 4 -1 1 -1 1 1 2 00.8917 01.7659 00.8593 1 1 0
09 1 14 39 0 1 1 1 +1 1 -1 2 NaN NaN 00.8173 00.0000 00.0000 0 NaN NaN
09 1 15 29 0 1 1 1 +1 0 -1 1 2 2 01.2406 00.7394 00.8844 1 0 1
09 1 16 41 0 1 2 1 +1 1 -1 2 NaN NaN 01.1454 00.0000 00.0000 0 NaN NaN
09 1 17 25 0 1 2 3 +1 0 +1 2 NaN NaN 00.9948 00.0000 00.0000 0 NaN NaN
09 1 18 26 0 1 1 3 -1 1 -1 2 NaN NaN 00.9466 00.0000 00.0000 0 NaN NaN
09 1 19 22 1 0 0 0 +0 0 +0 2 NaN NaN 00.9003 00.0000 00.0000 1 NaN NaN
09 1 20 28 1 0 0 0 +0 0 +0 1 2 2 00.7763 00.8388 01.3472 0 0 0
09 1 21 37 0 1 1 1 +1 0 +1 2 NaN NaN 00.7088 00.0000 00.0000 0 NaN NaN
09 1 22 37 0 1 2 1 -1 1 +1 1 1 1 00.8492 02.6528 01.6771 1 0 1
09 1 23 20 0 1 2 3 -1 0 -1 2 NaN NaN 00.6888 00.0000 00.0000 0 NaN NaN
09 1 24 43 0 1 1 3 -1 0 +1 2 NaN NaN 00.5898 00.0000 00.0000 0 NaN NaN
09 1 25 26 0 1 2 4 +1 0 -1 2 NaN NaN 00.5756 00.0000 00.0000 0 NaN NaN
09 1 26 36 0 1 2 4 +1 0 +1 1 2 2 00.7855 01.9359 00.9902 1 1 1
09 1 27 16 0 1 1 1 -1 1 +1 1 1 1 01.8712 01.2935 01.3344 1 1 1
09 1 28 23 0 1 2 1 -1 0 +1 2 NaN NaN 00.6322 00.0000 00.0000 0 NaN NaN
09 1 29 47 0 1 2 3 +1 1 -1 1 1 1 00.7752 00.7423 00.6301 1 0 0
09 1 30 34 0 1 2 1 -1 1 +1 1 2 1 01.7813 01.7218 01.9532 1 1 1
09 1 31 13 0 1 1 4 +1 0 +1 2 NaN NaN 01.4496 00.0000 00.0000 0 NaN NaN
09 1 32 3 0 1 1 1 +1 1 -1 1 1 2 01.4146 00.6504 01.7097 1 1 1
09 1 33 3 0 1 2 3 -1 0 +1 2 NaN NaN 00.7681 00.0000 00.0000 0 NaN NaN
09 1 34 4 0 1 2 4 -1 1 -1 2 NaN NaN 00.7137 00.0000 00.0000 0 NaN NaN
09 1 35 21 0 1 2 4 -1 0 +1 2 NaN NaN 00.6613 00.0000 00.0000 0 NaN NaN
09 1 36 18 0 1 1 1 -1 1 +1 1 1 2 00.8350 01.5353 00.7664 1 1 0
09 1 37 48 0 1 1 4 -1 0 -1 2 NaN NaN 00.8405 00.0000 00.0000 0 NaN NaN
09 1 38 39 0 1 1 1 +1 0 -1 1 1 2 00.7832 00.7658 00.8129 1 1 1
09 1 39 32 0 1 1 3 -1 1 +1 2 NaN NaN 00.6283 00.0000 00.0000 0 NaN NaN
09 1 40 46 0 1 1 1 -1 0 +1 2 NaN NaN 00.6273 00.0000 00.0000 0 NaN NaN
09 1 41 27 1 0 0 0 +0 0 +0 2 NaN NaN 00.6425 00.0000 00.0000 1 NaN NaN
09 1 42 35 1 0 0 0 +0 0 +0 2 NaN NaN 00.6894 00.0000 00.0000 1 NaN NaN
09 1 43 23 0 1 2 1 +1 1 -1 2 NaN NaN 01.5672 00.0000 00.0000 0 NaN NaN
09 1 44 14 0 1 2 4 +1 1 -1 2 NaN NaN 02.6792 00.0000 00.0000 0 NaN NaN
09 1 45 30 1 0 0 0 +0 0 +0 1 1 2 01.0403 02.2111 00.8068 0 0 0
09 1 46 41 0 1 1 1 -1 0 +1 2 NaN NaN 00.6393 00.0000 00.0000 0 NaN NaN
09 1 47 15 0 1 1 4 +1 1 +1 2 NaN NaN 00.8625 00.0000 00.0000 0 NaN NaN
09 1 48 10 0 1 1 3 +1 0 -1 2 NaN NaN 00.6758 00.0000 00.0000 0 NaN NaN
09 1 49 21 1 0 0 0 +0 0 +0 2 NaN NaN 01.5848 00.0000 00.0000 1 NaN NaN
09 1 50 40 0 1 2 1 +1 0 +1 2 NaN NaN 00.6801 00.0000 00.0000 0 NaN NaN
09 1 51 31 0 1 2 1 +1 1 +1 1 2 2 01.5570 00.8827 00.7498 1 1 1
09 1 52 7 1 0 0 0 +0 0 +0 2 NaN NaN 00.5684 00.0000 00.0000 1 NaN NaN
09 1 53 5 0 1 1 4 -1 1 +1 1 1 1 01.0024 00.8799 03.6900 1 1 1
09 1 54 22 1 0 0 0 +0 0 +0 2 NaN NaN 00.6173 00.0000 00.0000 1 NaN NaN
09 1 55 9 0 1 2 4 +1 1 +1 2 NaN NaN 00.5691 00.0000 00.0000 0 NaN NaN
09 1 56 38 1 0 0 0 +0 0 +0 2 NaN NaN 00.5230 00.0000 00.0000 1 NaN NaN
09 1 57 46 0 1 1 1 -1 1 -1 2 NaN NaN 00.5588 00.0000 00.0000 0 NaN NaN
09 1 58 8 0 1 1 3 +1 1 -1 1 1 2 01.0416 01.8295 00.6633 1 1 1
09 1 59 8 1 0 0 0 +0 0 +0 2 NaN NaN 00.6776 00.0000 00.0000 1 NaN NaN
09 1 60 12 0 1 1 1 -1 1 -1 2 NaN NaN 00.8352 00.0000 00.0000 0 NaN NaN
09 1 61 14 0 1 2 1 -1 0 -1 2 NaN NaN 00.6980 00.0000 00.0000 0 NaN NaN
09 1 62 16 0 1 1 1 -1 0 -1 2 NaN NaN 01.0304 00.0000 00.0000 0 NaN NaN
09 1 63 42 0 1 2 1 +1 1 +1 2 NaN NaN 00.8366 00.0000 00.0000 0 NaN NaN
09 1 64 2 0 1 2 1 -1 1 -1 2 NaN NaN 01.0360 00.0000 00.0000 0 NaN NaN
09 1 65 47 1 0 0 0 +0 0 +0 2 NaN NaN 00.6184 00.0000 00.0000 1 NaN NaN
09 1 66 33 1 0 0 0 +0 0 +0 1 2 1 00.7627 00.6980 00.7799 0 0 0
09 1 67 36 0 1 2 3 +1 1 +1 1 1 1 01.6047 00.8170 00.7181 1 0 0
09 1 68 33 0 1 1 1 +1 0 +1 2 NaN NaN 00.6336 00.0000 00.0000 0 NaN NaN
09 1 69 48 0 1 2 3 -1 1 -1 2 NaN NaN 01.0807 00.0000 00.0000 0 NaN NaN
09 1 70 29 0 1 2 4 -1 1 +1 2 NaN NaN 00.7729 00.0000 00.0000 0 NaN NaN
09 1 71 40 0 1 1 4 +1 1 -1 2 NaN NaN 01.6304 00.0000 00.0000 0 NaN NaN
09 1 72 1 0 1 2 1 -1 0 +1 2 NaN NaN 00.7561 00.0000 00.0000 0 NaN NaN
09 1 73 19 0 1 1 4 -1 0 +1 2 NaN NaN 01.5030 00.0000 00.0000 0 NaN NaN
09 1 74 30 0 1 2 4 -1 0 -1 2 NaN NaN 00.6345 00.0000 00.0000 0 NaN NaN
09 1 75 20 1 0 0 0 +0 0 +0 1 2 2 01.4663 00.8761 01.0624 0 0 0
09 1 76 6 0 1 2 1 +1 0 -1 2 NaN NaN 00.7553 00.0000 00.0000 0 NaN NaN
09 1 77 12 0 1 2 1 +1 0 +1 2 NaN NaN 00.5417 00.0000 00.0000 0 NaN NaN
09 1 78 44 0 1 1 4 +1 0 -1 2 NaN NaN 00.7368 00.0000 00.0000 0 NaN NaN
09 1 79 24 0 1 2 1 -1 1 -1 1 1 1 01.3877 00.5932 01.2392 1 0 1
09 1 80 6 0 1 1 1 +1 1 +1 2 NaN NaN 00.9737 00.0000 00.0000 0 NaN NaN
09 2 01 24 0 1 2 3 +1 0 -1 1 2 2 01.2148 00.6350 00.9440 1 1 1
09 2 02 15 0 1 2 1 -1 0 -1 2 NaN NaN 00.6742 00.0000 00.0000 0 NaN NaN
09 2 03 23 0 1 2 1 +1 1 -1 1 1 1 00.8160 00.9891 01.1230 1 0 0
09 2 04 18 0 1 1 1 -1 1 +1 1 1 2 00.8460 00.9856 01.6157 1 1 0
09 2 05 27 1 0 0 0 +0 0 +0 2 NaN NaN 00.9342 00.0000 00.0000 1 NaN NaN
09 2 06 25 0 1 2 3 +1 0 +1 2 NaN NaN 04.2173 00.0000 00.0000 0 NaN NaN
09 2 07 24 0 1 2 1 -1 1 -1 1 1 1 00.7869 00.4495 00.9759 1 0 1
09 2 08 8 1 0 0 0 +0 0 +0 2 NaN NaN 00.5291 00.0000 00.0000 1 NaN NaN
09 2 09 43 0 1 1 3 -1 0 +1 2 NaN NaN 00.4850 00.0000 00.0000 0 NaN NaN
09 2 10 40 0 1 1 4 +1 1 -1 2 NaN NaN 01.2911 00.0000 00.0000 0 NaN NaN
09 2 11 15 0 1 1 4 +1 1 +1 1 1 2 02.0156 02.1544 00.8475 1 1 1
09 2 12 48 0 1 2 3 -1 1 -1 2 NaN NaN 00.9182 00.0000 00.0000 0 NaN NaN
09 2 13 37 0 1 2 1 -1 1 +1 2 NaN NaN 00.8581 00.0000 00.0000 0 NaN NaN
09 2 14 30 0 1 2 4 -1 0 -1 2 NaN NaN 00.5282 00.0000 00.0000 0 NaN NaN
09 2 15 47 0 1 2 3 +1 1 -1 1 1 2 00.8842 00.3503 00.8311 1 0 1
09 2 16 16 0 1 1 1 -1 1 +1 2 NaN NaN 00.7264 00.0000 00.0000 0 NaN NaN
09 2 17 4 0 1 2 4 -1 1 -1 2 NaN NaN 01.4734 00.0000 00.0000 0 NaN NaN
09 2 18 32 0 1 1 1 -1 0 -1 2 NaN NaN 00.5895 00.0000 00.0000 0 NaN NaN
09 2 19 3 0 1 2 3 -1 0 +1 2 NaN NaN 01.1354 00.0000 00.0000 0 NaN NaN
09 2 20 35 1 0 0 0 +0 0 +0 2 NaN NaN 01.6256 00.0000 00.0000 1 NaN NaN
09 2 21 14 0 1 2 1 -1 0 -1 2 NaN NaN 00.7514 00.0000 00.0000 0 NaN NaN
09 2 22 34 0 1 1 3 +1 0 +1 1 2 2 01.0335 00.7815 00.7480 1 0 1
09 2 23 46 0 1 1 1 -1 0 +1 2 NaN NaN 00.7901 00.0000 00.0000 0 NaN NaN
09 2 24 33 1 0 0 0 +0 0 +0 1 1 2 01.3276 00.2632 00.6512 0 0 0
09 2 25 6 0 1 1 1 +1 1 +1 1 2 2 01.0021 01.3117 00.5678 1 0 1
09 2 26 34 0 1 2 1 -1 1 +1 1 2 2 00.9703 00.9132 00.8260 1 1 0
09 2 27 22 1 0 0 0 +0 0 +0 2 NaN NaN 00.8332 00.0000 00.0000 1 NaN NaN
09 2 28 20 1 0 0 0 +0 0 +0 2 NaN NaN 00.7281 00.0000 00.0000 1 NaN NaN
09 2 29 31 0 1 2 1 +1 1 +1 2 NaN NaN 00.6590 00.0000 00.0000 0 NaN NaN
09 2 30 30 1 0 0 0 +0 0 +0 1 1 2 00.6893 00.3720 00.6753 0 0 0
09 2 31 2 0 1 2 1 -1 1 -1 1 2 2 00.7849 00.4954 00.6497 1 1 0
09 2 32 28 1 0 0 0 +0 0 +0 2 NaN NaN 00.5367 00.0000 00.0000 1 NaN NaN
09 2 33 13 0 1 1 4 +1 0 +1 2 NaN NaN 00.6527 00.0000 00.0000 0 NaN NaN
09 2 34 21 0 1 2 4 -1 0 +1 2 NaN NaN 00.7478 00.0000 00.0000 0 NaN NaN
09 2 35 29 0 1 2 4 -1 1 +1 1 2 2 00.6939 01.8161 00.9392 1 1 0
09 2 36 44 0 1 1 4 +1 0 -1 2 NaN NaN 00.6857 00.0000 00.0000 0 NaN NaN
09 2 37 41 0 1 2 1 +1 1 -1 1 1 1 00.7952 00.2491 00.6540 1 0 0
09 2 38 1 1 0 0 0 +0 0 +0 1 1 1 00.7323 00.3161 00.5102 0 0 0
09 2 39 37 0 1 1 1 +1 0 +1 2 NaN NaN 00.4501 00.0000 00.0000 0 NaN NaN
09 2 40 32 0 1 1 3 -1 1 +1 2 NaN NaN 01.2256 00.0000 00.0000 0 NaN NaN
09 2 41 26 0 1 2 4 +1 0 -1 2 NaN NaN 00.5122 00.0000 00.0000 0 NaN NaN
09 2 42 27 0 1 1 1 +1 1 +1 2 NaN NaN 01.6203 00.0000 00.0000 0 NaN NaN
09 2 43 12 0 1 1 1 -1 1 -1 2 NaN NaN 00.7787 00.0000 00.0000 0 NaN NaN
09 2 44 48 0 1 1 4 -1 0 -1 2 NaN NaN 00.4982 00.0000 00.0000 0 NaN NaN
09 2 45 36 0 1 2 3 +1 1 +1 1 2 2 00.9196 00.7205 00.6252 1 1 1
09 2 46 25 0 1 1 3 +1 1 +1 2 NaN NaN 01.4415 00.0000 00.0000 0 NaN NaN
09 2 47 3 0 1 1 1 +1 1 -1 1 1 2 00.6711 01.1545 01.2814 1 1 1
09 2 48 39 0 1 1 1 +1 0 -1 2 NaN NaN 00.5493 00.0000 00.0000 0 NaN NaN
09 2 49 35 0 1 1 3 -1 0 -1 2 NaN NaN 00.7759 00.0000 00.0000 0 NaN NaN
09 2 50 36 0 1 2 4 +1 0 +1 1 2 1 00.8173 00.4145 02.7002 1 1 0
09 2 51 5 0 1 2 1 +1 0 -1 2 NaN NaN 00.5488 00.0000 00.0000 0 NaN NaN
09 2 52 41 0 1 1 1 -1 0 +1 2 NaN NaN 00.5193 00.0000 00.0000 0 NaN NaN
09 2 53 47 1 0 0 0 +0 0 +0 2 NaN NaN 00.5238 00.0000 00.0000 1 NaN NaN
09 2 54 42 0 1 2 1 +1 1 +1 2 NaN NaN 00.6880 00.0000 00.0000 0 NaN NaN
09 2 55 7 1 0 0 0 +0 0 +0 2 NaN NaN 00.5089 00.0000 00.0000 1 NaN NaN
09 2 56 26 0 1 1 3 -1 1 -1 1 1 2 03.0895 00.9438 00.7912 1 1 0
09 2 57 7 1 0 0 0 +0 0 +0 1 1 2 00.7839 00.4304 00.6035 0 0 0
09 2 58 21 1 0 0 0 +0 0 +0 1 2 2 00.6361 02.1288 00.6633 0 0 0
09 2 59 10 0 1 1 3 +1 0 -1 2 NaN NaN 00.7249 00.0000 00.0000 0 NaN NaN
09 2 60 1 0 1 2 1 -1 0 +1 2 NaN NaN 00.4646 00.0000 00.0000 0 NaN NaN
09 2 61 17 0 1 1 4 -1 1 -1 1 1 1 01.5747 00.6282 00.6484 1 1 1
09 2 62 22 1 0 0 0 +0 0 +0 2 NaN NaN 00.7753 00.0000 00.0000 1 NaN NaN
09 2 63 38 0 1 2 3 -1 1 +1 1 2 2 01.7609 00.7421 01.4300 1 1 0
09 2 64 38 1 0 0 0 +0 0 +0 2 NaN NaN 00.4996 00.0000 00.0000 1 NaN NaN
09 2 65 20 0 1 2 3 -1 0 -1 2 NaN NaN 00.4403 00.0000 00.0000 0 NaN NaN
09 2 66 12 0 1 2 1 +1 0 +1 2 NaN NaN 00.4317 00.0000 00.0000 0 NaN NaN
09 2 67 6 0 1 2 1 +1 0 -1 2 NaN NaN 00.5038 00.0000 00.0000 0 NaN NaN
09 2 68 16 0 1 1 1 -1 0 -1 2 NaN NaN 00.5093 00.0000 00.0000 0 NaN NaN
09 2 69 29 0 1 1 1 +1 0 -1 2 NaN NaN 00.4019 00.0000 00.0000 0 NaN NaN
09 2 70 19 0 1 1 4 -1 0 +1 2 NaN NaN 00.4269 00.0000 00.0000 0 NaN NaN
09 2 71 8 0 1 1 3 +1 1 -1 1 1 2 00.7383 00.3388 00.6440 1 1 1
09 2 72 39 0 1 1 1 +1 1 -1 1 1 1 02.7065 00.5447 00.6168 1 1 0
09 2 73 14 0 1 2 4 +1 1 -1 2 NaN NaN 00.8253 00.0000 00.0000 0 NaN NaN
09 2 74 23 0 1 2 1 -1 0 +1 2 NaN NaN 00.4648 00.0000 00.0000 0 NaN NaN
09 2 75 46 0 1 1 1 -1 1 -1 1 1 1 00.6948 02.6808 03.8477 1 1 1
09 2 76 40 0 1 2 1 +1 0 +1 2 NaN NaN 00.5285 00.0000 00.0000 0 NaN NaN
09 2 77 33 0 1 1 1 +1 0 +1 2 NaN NaN 00.4525 00.0000 00.0000 0 NaN NaN
09 2 78 9 0 1 2 4 +1 1 +1 2 NaN NaN 00.6519 00.0000 00.0000 0 NaN NaN
09 2 79 42 1 0 0 0 +0 0 +0 2 NaN NaN 00.5550 00.0000 00.0000 1 NaN NaN
09 2 80 5 0 1 1 4 -1 1 +1 1 2 1 01.3417 00.5329 00.7021 1 0 1
09 3 01 39 0 1 1 1 +1 0 -1 2 NaN NaN 00.7550 00.0000 00.0000 0 NaN NaN
09 3 02 8 1 0 0 0 +0 0 +0 2 NaN NaN 00.5093 00.0000 00.0000 1 NaN NaN
09 3 03 20 0 1 2 3 -1 0 -1 2 NaN NaN 00.5139 00.0000 00.0000 0 NaN NaN
09 3 04 21 1 0 0 0 +0 0 +0 1 1 2 00.7900 00.7558 00.8682 0 0 0
09 3 05 14 0 1 2 4 +1 1 -1 2 NaN NaN 00.9862 00.0000 00.0000 0 NaN NaN
09 3 06 12 0 1 1 1 -1 1 -1 2 NaN NaN 00.4586 00.0000 00.0000 0 NaN NaN
09 3 07 40 0 1 2 1 +1 0 +1 2 NaN NaN 00.4647 00.0000 00.0000 0 NaN NaN
09 3 08 32 0 1 1 1 -1 0 -1 2 NaN NaN 00.4390 00.0000 00.0000 0 NaN NaN
09 3 09 30 1 0 0 0 +0 0 +0 2 NaN NaN 00.9103 00.0000 00.0000 1 NaN NaN
09 3 10 35 0 1 1 3 -1 0 -1 2 NaN NaN 00.4975 00.0000 00.0000 0 NaN NaN
09 3 11 8 0 1 1 3 +1 1 -1 1 1 2 00.6621 00.2975 00.4761 1 1 1
09 3 12 24 0 1 2 3 +1 0 -1 2 NaN NaN 00.3542 00.0000 00.0000 0 NaN NaN
09 3 13 48 0 1 1 4 -1 0 -1 2 NaN NaN 00.4133 00.0000 00.0000 0 NaN NaN
09 3 14 36 0 1 2 4 +1 0 +1 1 2 1 00.7415 01.4126 00.5206 1 1 0
09 3 15 15 0 1 2 1 -1 0 -1 2 NaN NaN 00.6044 00.0000 00.0000 0 NaN NaN
09 3 16 29 0 1 2 4 -1 1 +1 1 2 2 01.2129 00.8573 00.6128 1 1 0
09 3 17 6 0 1 2 1 +1 0 -1 2 NaN NaN 00.4693 00.0000 00.0000 0 NaN NaN
09 3 18 26 0 1 2 4 +1 0 -1 2 NaN NaN 00.4115 00.0000 00.0000 0 NaN NaN
09 3 19 42 0 1 2 1 +1 1 +1 2 NaN NaN 00.7396 00.0000 00.0000 0 NaN NaN
09 3 20 25 0 1 1 3 +1 1 +1 2 NaN NaN 00.7032 00.0000 00.0000 0 NaN NaN
09 3 21 33 1 0 0 0 +0 0 +0 1 1 2 00.8115 00.3285 00.3620 0 0 0
09 3 22 5 0 1 2 1 +1 0 -1 2 NaN NaN 00.4368 00.0000 00.0000 0 NaN NaN
09 3 23 24 0 1 2 1 -1 1 -1 1 1 1 00.7003 00.3984 00.9409 1 0 1
09 3 24 34 0 1 2 1 -1 1 +1 1 1 2 00.7513 01.4538 00.8165 1 0 0
09 3 25 12 0 1 2 1 +1 0 +1 2 NaN NaN 00.4724 00.0000 00.0000 0 NaN NaN
09 3 26 38 1 0 0 0 +0 0 +0 2 NaN NaN 00.4785 00.0000 00.0000 1 NaN NaN
09 3 27 6 0 1 1 1 +1 1 +1 2 NaN NaN 00.3880 00.0000 00.0000 0 NaN NaN
09 3 28 15 0 1 1 4 +1 1 +1 2 NaN NaN 00.5895 00.0000 00.0000 0 NaN NaN
09 3 29 36 0 1 2 3 +1 1 +1 1 1 2 00.6391 00.5959 00.3781 1 0 1
09 3 30 46 0 1 1 1 -1 0 +1 2 NaN NaN 00.4837 00.0000 00.0000 0 NaN NaN
09 3 31 43 0 1 1 3 -1 0 +1 2 NaN NaN 00.3937 00.0000 00.0000 0 NaN NaN
09 3 32 39 0 1 1 1 +1 1 -1 1 2 1 00.6267 00.3914 00.3420 1 0 0
09 3 33 10 0 1 1 3 +1 0 -1 2 NaN NaN 00.3536 00.0000 00.0000 0 NaN NaN
09 3 34 42 1 0 0 0 +0 0 +0 2 NaN NaN 00.5726 00.0000 00.0000 1 NaN NaN
09 3 35 22 1 0 0 0 +0 0 +0 2 NaN NaN 00.4465 00.0000 00.0000 1 NaN NaN
09 3 36 27 1 0 0 0 +0 0 +0 2 NaN NaN 00.4533 00.0000 00.0000 1 NaN NaN
09 3 37 20 1 0 0 0 +0 0 +0 2 NaN NaN 00.7967 00.0000 00.0000 1 NaN NaN
09 3 38 35 1 0 0 0 +0 0 +0 1 2 2 01.0287 00.3769 00.4561 0 0 0
09 3 39 38 0 1 2 3 -1 1 +1 1 2 2 00.7829 00.9893 00.3551 1 1 0
09 3 40 37 0 1 1 1 +1 0 +1 2 NaN NaN 00.4464 00.0000 00.0000 0 NaN NaN
09 3 41 44 0 1 1 4 +1 0 -1 2 NaN NaN 00.5171 00.0000 00.0000 0 NaN NaN
09 3 42 7 1 0 0 0 +0 0 +0 2 NaN NaN 00.3456 00.0000 00.0000 1 NaN NaN
09 3 43 2 0 1 2 1 -1 1 -1 2 NaN NaN 00.5808 00.0000 00.0000 0 NaN NaN
09 3 44 34 0 1 1 3 +1 0 +1 2 NaN NaN 00.3739 00.0000 00.0000 0 NaN NaN
09 3 45 1 1 0 0 0 +0 0 +0 1 1 1 00.8003 00.6539 00.6262 0 0 0
09 3 46 26 0 1 1 3 -1 1 -1 1 1 1 00.7217 00.4666 01.5508 1 1 1
09 3 47 3 0 1 2 3 -1 0 +1 2 NaN NaN 00.3760 00.0000 00.0000 0 NaN NaN
09 3 48 7 1 0 0 0 +0 0 +0 2 NaN NaN 01.0422 00.0000 00.0000 1 NaN NaN
09 3 49 40 0 1 1 4 +1 1 -1 1 2 2 00.8647 00.9397 00.4994 1 0 1
09 3 50 16 0 1 1 1 -1 0 -1 2 NaN NaN 00.4891 00.0000 00.0000 0 NaN NaN
09 3 51 9 0 1 2 4 +1 1 +1 2 NaN NaN 00.3347 00.0000 00.0000 0 NaN NaN
09 3 52 32 0 1 1 3 -1 1 +1 2 NaN NaN 00.9062 00.0000 00.0000 0 NaN NaN
09 3 53 23 0 1 2 1 -1 0 +1 2 NaN NaN 00.4302 00.0000 00.0000 0 NaN NaN
09 3 54 4 0 1 2 4 -1 1 -1 2 NaN NaN 00.7256 00.0000 00.0000 0 NaN NaN
09 3 55 47 1 0 0 0 +0 0 +0 2 NaN NaN 00.5292 00.0000 00.0000 1 NaN NaN
09 3 56 41 0 1 2 1 +1 1 -1 1 2 2 01.0765 00.4864 00.4494 1 1 1
09 3 57 13 0 1 1 4 +1 0 +1 2 NaN NaN 00.4568 00.0000 00.0000 0 NaN NaN
09 3 58 16 0 1 1 1 -1 1 +1 2 NaN NaN 01.6157 00.0000 00.0000 0 NaN NaN
09 3 59 18 0 1 1 1 -1 1 +1 1 1 2 01.0615 00.3761 00.6794 1 1 0
09 3 60 17 0 1 1 4 -1 1 -1 2 NaN NaN 00.6603 00.0000 00.0000 0 NaN NaN
09 3 61 1 0 1 2 1 -1 0 +1 2 NaN NaN 00.4501 00.0000 00.0000 0 NaN NaN
09 3 62 21 0 1 2 4 -1 0 +1 2 NaN NaN 00.3928 00.0000 00.0000 0 NaN NaN
09 3 63 31 0 1 2 1 +1 1 +1 2 NaN NaN 01.7136 00.0000 00.0000 0 NaN NaN
09 3 64 46 0 1 1 1 -1 1 -1 1 2 1 00.9793 01.6415 01.3151 1 0 1
09 3 65 27 0 1 1 1 +1 1 +1 2 NaN NaN 00.9989 00.0000 00.0000 0 NaN NaN
09 3 66 29 0 1 1 1 +1 0 -1 2 NaN NaN 00.5184 00.0000 00.0000 0 NaN NaN
09 3 67 33 0 1 1 1 +1 0 +1 2 NaN NaN 00.3784 00.0000 00.0000 0 NaN NaN
09 3 68 30 0 1 2 4 -1 0 -1 2 NaN NaN 00.4359 00.0000 00.0000 0 NaN NaN
09 3 69 5 0 1 1 4 -1 1 +1 1 1 1 01.3880 00.5135 00.3470 1 1 1
09 3 70 37 0 1 2 1 -1 1 +1 2 NaN NaN 00.8539 00.0000 00.0000 0 NaN NaN
09 3 71 23 0 1 2 1 +1 1 -1 2 NaN NaN 00.4926 00.0000 00.0000 0 NaN NaN
09 3 72 48 0 1 2 3 -1 1 -1 1 2 1 00.7060 00.4993 00.5578 1 1 1
09 3 73 14 0 1 2 1 -1 0 -1 2 NaN NaN 00.4803 00.0000 00.0000 0 NaN NaN
09 3 74 28 1 0 0 0 +0 0 +0 2 NaN NaN 00.3903 00.0000 00.0000 1 NaN NaN
09 3 75 22 1 0 0 0 +0 0 +0 2 NaN NaN 00.4000 00.0000 00.0000 1 NaN NaN
09 3 76 25 0 1 2 3 +1 0 +1 2 NaN NaN 00.3768 00.0000 00.0000 0 NaN NaN
09 3 77 47 0 1 2 3 +1 1 -1 2 NaN NaN 00.6263 00.0000 00.0000 0 NaN NaN
09 3 78 19 0 1 1 4 -1 0 +1 2 NaN NaN 00.4341 00.0000 00.0000 0 NaN NaN
09 3 79 3 0 1 1 1 +1 1 -1 1 1 2 00.7145 00.2196 02.4018 1 1 1
09 3 80 41 0 1 1 1 -1 0 +1 2 NaN NaN 00.4069 00.0000 00.0000 0 NaN NaN
09 4 01 33 1 0 0 0 +0 0 +0 2 NaN NaN 01.0753 00.0000 00.0000 1 NaN NaN
09 4 02 21 1 0 0 0 +0 0 +0 1 1 1 00.7202 00.3523 00.5783 0 0 0
09 4 03 40 0 1 2 1 +1 0 +1 2 NaN NaN 00.4674 00.0000 00.0000 0 NaN NaN
09 4 04 24 0 1 2 3 +1 0 -1 2 NaN NaN 00.5221 00.0000 00.0000 0 NaN NaN
09 4 05 22 1 0 0 0 +0 0 +0 2 NaN NaN 00.6222 00.0000 00.0000 1 NaN NaN
09 4 06 6 0 1 1 1 +1 1 +1 2 NaN NaN 00.5099 00.0000 00.0000 0 NaN NaN
09 4 07 7 1 0 0 0 +0 0 +0 1 2 1 00.7545 00.4664 00.7176 0 0 0
09 4 08 27 1 0 0 0 +0 0 +0 2 NaN NaN 00.3451 00.0000 00.0000 1 NaN NaN
09 4 09 2 0 1 2 1 -1 1 -1 1 1 1 00.7080 01.3973 00.3779 1 0 1
09 4 10 4 0 1 2 4 -1 1 -1 1 2 1 00.6915 00.5334 00.4144 1 1 1
09 4 11 35 1 0 0 0 +0 0 +0 2 NaN NaN 00.7905 00.0000 00.0000 1 NaN NaN
09 4 12 33 0 1 1 1 +1 0 +1 2 NaN NaN 00.4000 00.0000 00.0000 0 NaN NaN
09 4 13 17 0 1 1 4 -1 1 -1 2 NaN NaN 00.8256 00.0000 00.0000 0 NaN NaN
09 4 14 26 0 1 1 3 -1 1 -1 1 1 1 00.6891 00.3396 00.6931 1 1 1
09 4 15 8 1 0 0 0 +0 0 +0 2 NaN NaN 00.3854 00.0000 00.0000 1 NaN NaN
09 4 16 32 0 1 1 1 -1 0 -1 2 NaN NaN 00.3795 00.0000 00.0000 0 NaN NaN
09 4 17 6 0 1 2 1 +1 0 -1 2 NaN NaN 00.3738 00.0000 00.0000 0 NaN NaN
09 4 18 22 1 0 0 0 +0 0 +0 2 NaN NaN 00.5607 00.0000 00.0000 1 NaN NaN
09 4 19 39 0 1 1 1 +1 0 -1 2 NaN NaN 00.6428 00.0000 00.0000 0 NaN NaN
09 4 20 47 0 1 2 3 +1 1 -1 2 NaN NaN 01.4577 00.0000 00.0000 0 NaN NaN
09 4 21 29 0 1 1 1 +1 0 -1 2 NaN NaN 00.4312 00.0000 00.0000 0 NaN NaN
09 4 22 20 1 0 0 0 +0 0 +0 2 NaN NaN 00.6794 00.0000 00.0000 1 NaN NaN
09 4 23 34 0 1 2 1 -1 1 +1 1 1 2 00.5652 00.2688 00.4170 1 0 0
09 4 24 42 0 1 2 1 +1 1 +1 2 NaN NaN 00.4096 00.0000 00.0000 0 NaN NaN
09 4 25 5 0 1 1 4 -1 1 +1 1 1 2 00.6900 00.3405 00.4532 1 1 0
09 4 26 8 0 1 1 3 +1 1 -1 1 1 1 00.7805 00.4272 00.8069 1 1 0
09 4 27 32 0 1 1 3 -1 1 +1 2 NaN NaN 00.6710 00.0000 00.0000 0 NaN NaN
09 4 28 46 0 1 1 1 -1 1 -1 1 2 1 00.6373 01.8421 00.9630 1 0 1
09 4 29 25 0 1 2 3 +1 0 +1 2 NaN NaN 00.4222 00.0000 00.0000 0 NaN NaN
09 4 30 38 0 1 2 3 -1 1 +1 2 NaN NaN 00.6224 00.0000 00.0000 0 NaN NaN
09 4 31 30 1 0 0 0 +0 0 +0 2 NaN NaN 00.6223 00.0000 00.0000 1 NaN NaN
09 4 32 34 0 1 1 3 +1 0 +1 2 NaN NaN 00.3980 00.0000 00.0000 0 NaN NaN
09 4 33 26 0 1 2 4 +1 0 -1 2 NaN NaN 00.4550 00.0000 00.0000 0 NaN NaN
09 4 34 18 0 1 1 1 -1 1 +1 1 1 2 00.6536 00.3054 00.9004 1 1 0
09 4 35 24 0 1 2 1 -1 1 -1 2 NaN NaN 00.6644 00.0000 00.0000 0 NaN NaN
09 4 36 28 1 0 0 0 +0 0 +0 2 NaN NaN 00.3741 00.0000 00.0000 1 NaN NaN
09 4 37 37 0 1 1 1 +1 0 +1 2 NaN NaN 00.4162 00.0000 00.0000 0 NaN NaN
09 4 38 30 0 1 2 4 -1 0 -1 2 NaN NaN 00.3931 00.0000 00.0000 0 NaN NaN
09 4 39 39 0 1 1 1 +1 1 -1 1 1 2 00.6741 00.2934 00.4081 1 1 1
09 4 40 16 0 1 1 1 -1 0 -1 2 NaN NaN 00.4016 00.0000 00.0000 0 NaN NaN
09 4 41 14 0 1 2 1 -1 0 -1 2 NaN NaN 00.3144 00.0000 00.0000 0 NaN NaN
09 4 42 19 0 1 1 4 -1 0 +1 2 NaN NaN 00.3590 00.0000 00.0000 0 NaN NaN
09 4 43 1 1 0 0 0 +0 0 +0 2 NaN NaN 00.3212 00.0000 00.0000 1 NaN NaN
09 4 44 23 0 1 2 1 -1 0 +1 2 NaN NaN 00.6221 00.0000 00.0000 0 NaN NaN
09 4 45 10 0 1 1 3 +1 0 -1 2 NaN NaN 00.3821 00.0000 00.0000 0 NaN NaN
09 4 46 1 0 1 2 1 -1 0 +1 2 NaN NaN 00.4402 00.0000 00.0000 0 NaN NaN
09 4 47 40 0 1 1 4 +1 1 -1 1 1 2 00.7998 00.3656 00.3495 1 1 1
09 4 48 5 0 1 2 1 +1 0 -1 2 NaN NaN 00.3764 00.0000 00.0000 0 NaN NaN
09 4 49 31 0 1 2 1 +1 1 +1 2 NaN NaN 00.6266 00.0000 00.0000 0 NaN NaN
09 4 50 43 0 1 1 3 -1 0 +1 2 NaN NaN 00.4658 00.0000 00.0000 0 NaN NaN
09 4 51 15 0 1 1 4 +1 1 +1 1 2 2 00.6960 00.4898 00.6757 1 0 1
09 4 52 36 0 1 2 3 +1 1 +1 1 2 1 00.8505 00.7662 00.6374 1 1 0
09 4 53 15 0 1 2 1 -1 0 -1 2 NaN NaN 00.3810 00.0000 00.0000 0 NaN NaN
09 4 54 21 0 1 2 4 -1 0 +1 2 NaN NaN 00.3747 00.0000 00.0000 0 NaN NaN
09 4 55 41 0 1 2 1 +1 1 -1 2 NaN NaN 00.3851 00.0000 00.0000 0 NaN NaN
09 4 56 48 0 1 1 4 -1 0 -1 2 NaN NaN 00.3785 00.0000 00.0000 0 NaN NaN
09 4 57 23 0 1 2 1 +1 1 -1 2 NaN NaN 00.4200 00.0000 00.0000 0 NaN NaN
09 4 58 25 0 1 1 3 +1 1 +1 2 NaN NaN 01.3569 00.0000 00.0000 0 NaN NaN
09 4 59 3 0 1 2 3 -1 0 +1 2 NaN NaN 00.3500 00.0000 00.0000 0 NaN NaN
09 4 60 14 0 1 2 4 +1 1 -1 2 NaN NaN 00.3616 00.0000 00.0000 0 NaN NaN
09 4 61 3 0 1 1 1 +1 1 -1 1 1 1 00.5799 00.2988 00.5416 1 1 0
09 4 62 38 1 0 0 0 +0 0 +0 2 NaN NaN 00.4007 00.0000 00.0000 1 NaN NaN
09 4 63 46 0 1 1 1 -1 0 +1 2 NaN NaN 00.3297 00.0000 00.0000 0 NaN NaN
09 4 64 48 0 1 2 3 -1 1 -1 2 NaN NaN 00.6619 00.0000 00.0000 0 NaN NaN
09 4 65 12 0 1 1 1 -1 1 -1 2 NaN NaN 00.5003 00.0000 00.0000 0 NaN NaN
09 4 66 36 0 1 2 4 +1 0 +1 2 NaN NaN 00.3937 00.0000 00.0000 0 NaN NaN
09 4 67 9 0 1 2 4 +1 1 +1 2 NaN NaN 01.3307 00.0000 00.0000 0 NaN NaN
09 4 68 42 1 0 0 0 +0 0 +0 2 NaN NaN 00.6931 00.0000 00.0000 1 NaN NaN
09 4 69 13 0 1 1 4 +1 0 +1 2 NaN NaN 00.6254 00.0000 00.0000 0 NaN NaN
09 4 70 7 1 0 0 0 +0 0 +0 2 NaN NaN 00.4811 00.0000 00.0000 1 NaN NaN
09 4 71 41 0 1 1 1 -1 0 +1 2 NaN NaN 00.5992 00.0000 00.0000 0 NaN NaN
09 4 72 20 0 1 2 3 -1 0 -1 2 NaN NaN 00.5997 00.0000 00.0000 0 NaN NaN
09 4 73 16 0 1 1 1 -1 1 +1 1 2 2 01.3842 00.4456 00.3780 1 0 0
09 4 74 35 0 1 1 3 -1 0 -1 2 NaN NaN 00.4355 00.0000 00.0000 0 NaN NaN
09 4 75 37 0 1 2 1 -1 1 +1 1 1 2 00.5077 00.2939 00.3608 1 0 0
09 4 76 47 1 0 0 0 +0 0 +0 2 NaN NaN 00.4671 00.0000 00.0000 1 NaN NaN
09 4 77 44 0 1 1 4 +1 0 -1 2 NaN NaN 00.4577 00.0000 00.0000 0 NaN NaN
09 4 78 12 0 1 2 1 +1 0 +1 2 NaN NaN 00.4325 00.0000 00.0000 0 NaN NaN
09 4 79 29 0 1 2 4 -1 1 +1 1 1 1 00.6961 00.2980 00.5567 1 0 1
09 4 80 27 0 1 1 1 +1 1 +1 1 2 2 00.7833 01.0857 00.3357 1 0 1
09 5 01 29 0 1 2 4 -1 1 +1 2 NaN NaN 01.5244 00.0000 00.0000 0 NaN NaN
09 5 02 40 0 1 2 1 +1 0 +1 2 NaN NaN 00.4945 00.0000 00.0000 0 NaN NaN
09 5 03 12 0 1 1 1 -1 1 -1 2 NaN NaN 00.9312 00.0000 00.0000 0 NaN NaN
09 5 04 12 0 1 2 1 +1 0 +1 2 NaN NaN 00.4223 00.0000 00.0000 0 NaN NaN
09 5 05 1 1 0 0 0 +0 0 +0 2 NaN NaN 00.7832 00.0000 00.0000 1 NaN NaN
09 5 06 32 0 1 1 1 -1 0 -1 2 NaN NaN 00.4240 00.0000 00.0000 0 NaN NaN
09 5 07 31 0 1 2 1 +1 1 +1 1 1 2 00.5763 00.3752 00.2783 1 0 1
09 5 08 35 1 0 0 0 +0 0 +0 1 2 1 00.6921 00.3420 00.3107 0 0 0
09 5 09 48 0 1 2 3 -1 1 -1 1 2 1 00.7077 00.3250 00.3744 1 1 1
09 5 10 38 0 1 2 3 -1 1 +1 1 1 1 00.8007 00.5584 01.5426 1 0 1
09 5 11 27 1 0 0 0 +0 0 +0 2 NaN NaN 00.4798 00.0000 00.0000 1 NaN NaN
09 5 12 40 0 1 1 4 +1 1 -1 1 2 2 00.9173 00.5743 00.9170 1 0 1
09 5 13 32 0 1 1 3 -1 1 +1 2 NaN NaN 00.6967 00.0000 00.0000 0 NaN NaN
09 5 14 28 1 0 0 0 +0 0 +0 2 NaN NaN 00.3891 00.0000 00.0000 1 NaN NaN
09 5 15 37 0 1 1 1 +1 0 +1 2 NaN NaN 00.3987 00.0000 00.0000 0 NaN NaN
09 5 16 4 0 1 2 4 -1 1 -1 2 NaN NaN 00.7436 00.0000 00.0000 0 NaN NaN
09 5 17 36 0 1 2 3 +1 1 +1 1 1 2 01.1224 00.7070 00.4849 1 0 1
09 5 18 20 1 0 0 0 +0 0 +0 2 NaN NaN 00.4264 00.0000 00.0000 1 NaN NaN
09 5 19 47 1 0 0 0 +0 0 +0 2 NaN NaN 00.4825 00.0000 00.0000 1 NaN NaN
09 5 20 39 0 1 1 1 +1 1 -1 1 1 2 00.7125 00.4258 01.8951 1 1 1
09 5 21 33 1 0 0 0 +0 0 +0 1 1 2 00.7217 00.4509 00.6394 0 0 0
09 5 22 39 0 1 1 1 +1 0 -1 2 NaN NaN 00.4785 00.0000 00.0000 0 NaN NaN
09 5 23 2 0 1 2 1 -1 1 -1 2 NaN NaN 00.7237 00.0000 00.0000 0 NaN NaN
09 5 24 38 1 0 0 0 +0 0 +0 2 NaN NaN 00.5434 00.0000 00.0000 1 NaN NaN
09 5 25 42 0 1 2 1 +1 1 +1 2 NaN NaN 00.6899 00.0000 00.0000 0 NaN NaN
09 5 26 7 1 0 0 0 +0 0 +0 2 NaN NaN 00.9589 00.0000 00.0000 1 NaN NaN
09 5 27 16 0 1 1 1 -1 0 -1 2 NaN NaN 00.5288 00.0000 00.0000 0 NaN NaN
09 5 28 25 0 1 1 3 +1 1 +1 2 NaN NaN 01.5881 00.0000 00.0000 0 NaN NaN
09 5 29 30 0 1 2 4 -1 0 -1 2 NaN NaN 01.9473 00.0000 00.0000 0 NaN NaN
09 5 30 16 0 1 1 1 -1 1 +1 1 2 1 01.7312 00.9539 01.2975 1 0 1
09 5 31 5 0 1 2 1 +1 0 -1 2 NaN NaN 01.2684 00.0000 00.0000 0 NaN NaN
09 5 32 44 0 1 1 4 +1 0 -1 2 NaN NaN 00.4730 00.0000 00.0000 0 NaN NaN
09 5 33 3 0 1 2 3 -1 0 +1 2 NaN NaN 00.3510 00.0000 00.0000 0 NaN NaN
09 5 34 34 0 1 1 3 +1 0 +1 2 NaN NaN 00.4747 00.0000 00.0000 0 NaN NaN
09 5 35 27 0 1 1 1 +1 1 +1 1 2 2 00.7528 00.8966 00.8582 1 0 1
09 5 36 25 0 1 2 3 +1 0 +1 2 NaN NaN 00.4962 00.0000 00.0000 0 NaN NaN
09 5 37 19 0 1 1 4 -1 0 +1 2 NaN NaN 00.3729 00.0000 00.0000 0 NaN NaN
09 5 38 18 0 1 1 1 -1 1 +1 1 1 2 02.3991 00.4898 02.2281 1 1 0
09 5 39 8 0 1 1 3 +1 1 -1 1 1 2 00.7689 01.1041 00.6093 1 1 1
09 5 40 14 0 1 2 1 -1 0 -1 2 NaN NaN 04.8818 00.0000 00.0000 0 NaN NaN
09 5 41 48 0 1 1 4 -1 0 -1 2 NaN NaN 00.4159 00.0000 00.0000 0 NaN NaN
09 5 42 23 0 1 2 1 +1 1 -1 2 NaN NaN 00.3121 00.0000 00.0000 0 NaN NaN
09 5 43 33 0 1 1 1 +1 0 +1 2 NaN NaN 00.3726 00.0000 00.0000 0 NaN NaN
09 5 44 30 1 0 0 0 +0 0 +0 1 1 2 00.9427 00.5824 03.3251 0 0 0
09 5 45 1 0 1 2 1 -1 0 +1 2 NaN NaN 00.4117 00.0000 00.0000 0 NaN NaN
09 5 46 9 0 1 2 4 +1 1 +1 2 NaN NaN 00.7239 00.0000 00.0000 0 NaN NaN
09 5 47 14 0 1 2 4 +1 1 -1 2 NaN NaN 00.7515 00.0000 00.0000 0 NaN NaN
09 5 48 35 0 1 1 3 -1 0 -1 2 NaN NaN 00.3777 00.0000 00.0000 0 NaN NaN
09 5 49 21 0 1 2 4 -1 0 +1 2 NaN NaN 00.3393 00.0000 00.0000 0 NaN NaN
09 5 50 23 0 1 2 1 -1 0 +1 2 NaN NaN 00.4468 00.0000 00.0000 0 NaN NaN
09 5 51 3 0 1 1 1 +1 1 -1 1 1 2 00.5176 00.2394 00.3082 1 1 1
09 5 52 6 0 1 2 1 +1 0 -1 2 NaN NaN 00.3539 00.0000 00.0000 0 NaN NaN
09 5 53 15 0 1 2 1 -1 0 -1 2 NaN NaN 00.3815 00.0000 00.0000 0 NaN NaN
09 5 54 20 0 1 2 3 -1 0 -1 2 NaN NaN 00.3758 00.0000 00.0000 0 NaN NaN
09 5 55 10 0 1 1 3 +1 0 -1 2 NaN NaN 00.3700 00.0000 00.0000 0 NaN NaN
09 5 56 41 0 1 1 1 -1 0 +1 2 NaN NaN 00.3325 00.0000 00.0000 0 NaN NaN
09 5 57 34 0 1 2 1 -1 1 +1 1 1 2 00.5846 00.3517 00.2403 1 0 0
09 5 58 24 0 1 2 1 -1 1 -1 1 2 2 00.6568 00.5162 00.7819 1 1 0
09 5 59 6 0 1 1 1 +1 1 +1 2 NaN NaN 00.3746 00.0000 00.0000 0 NaN NaN
09 5 60 43 0 1 1 3 -1 0 +1 2 NaN NaN 00.4008 00.0000 00.0000 0 NaN NaN
09 5 61 26 0 1 2 4 +1 0 -1 2 NaN NaN 00.4903 00.0000 00.0000 0 NaN NaN
09 5 62 13 0 1 1 4 +1 0 +1 2 NaN NaN 01.0239 00.0000 00.0000 0 NaN NaN
09 5 63 24 0 1 2 3 +1 0 -1 2 NaN NaN 00.4794 00.0000 00.0000 0 NaN NaN
09 5 64 7 1 0 0 0 +0 0 +0 1 1 2 00.6935 00.6316 00.4123 0 0 0
09 5 65 22 1 0 0 0 +0 0 +0 2 NaN NaN 00.4363 00.0000 00.0000 1 NaN NaN
09 5 66 47 0 1 2 3 +1 1 -1 1 1 2 01.6760 00.9966 00.9220 1 0 1
09 5 67 8 1 0 0 0 +0 0 +0 2 NaN NaN 00.7813 00.0000 00.0000 1 NaN NaN
09 5 68 5 0 1 1 4 -1 1 +1 1 1 2 01.4939 00.5825 00.3974 1 1 0
09 5 69 42 1 0 0 0 +0 0 +0 2 NaN NaN 00.4541 00.0000 00.0000 1 NaN NaN
09 5 70 36 0 1 2 4 +1 0 +1 1 2 1 01.8048 01.2807 00.9222 1 1 0
09 5 71 15 0 1 1 4 +1 1 +1 2 NaN NaN 00.6861 00.0000 00.0000 0 NaN NaN
09 5 72 21 1 0 0 0 +0 0 +0 1 1 2 00.7157 00.3490 00.3017 0 0 0
09 5 73 46 0 1 1 1 -1 1 -1 1 2 1 00.9874 01.2176 01.3258 1 0 1
09 5 74 17 0 1 1 4 -1 1 -1 1 2 2 01.0402 00.6911 00.6303 1 0 0
09 5 75 46 0 1 1 1 -1 0 +1 2 NaN NaN 00.3893 00.0000 00.0000 0 NaN NaN
09 5 76 26 0 1 1 3 -1 1 -1 1 2 1 01.1509 03.0539 06.0133 1 0 1
09 5 77 37 0 1 2 1 -1 1 +1 1 2 1 01.7555 00.5453 00.9056 1 1 1
09 5 78 29 0 1 1 1 +1 0 -1 2 NaN NaN 00.5416 00.0000 00.0000 0 NaN NaN
09 5 79 41 0 1 2 1 +1 1 -1 2 NaN NaN 01.0088 00.0000 00.0000 0 NaN NaN
09 5 80 22 1 0 0 0 +0 0 +0 2 NaN NaN 00.9446 00.0000 00.0000 1 NaN NaN
09 6 01 28 1 0 0 0 +0 0 +0 2 NaN NaN 00.5028 00.0000 00.0000 1 NaN NaN
09 6 02 21 0 1 2 4 -1 0 +1 2 NaN NaN 00.2996 00.0000 00.0000 0 NaN NaN
09 6 03 23 0 1 2 1 +1 1 -1 2 NaN NaN 00.3446 00.0000 00.0000 0 NaN NaN
09 6 04 20 0 1 2 3 -1 0 -1 2 NaN NaN 00.6597 00.0000 00.0000 0 NaN NaN
09 6 05 35 1 0 0 0 +0 0 +0 2 NaN NaN 02.3378 00.0000 00.0000 1 NaN NaN
09 6 06 26 0 1 2 4 +1 0 -1 2 NaN NaN 03.1778 00.0000 00.0000 0 NaN NaN
09 6 07 23 0 1 2 1 -1 0 +1 2 NaN NaN 00.6873 00.0000 00.0000 0 NaN NaN
09 6 08 7 1 0 0 0 +0 0 +0 1 1 2 02.0129 00.5511 00.8313 0 0 0
09 6 09 38 1 0 0 0 +0 0 +0 2 NaN NaN 00.4700 00.0000 00.0000 1 NaN NaN
09 6 10 37 0 1 1 1 +1 0 +1 2 NaN NaN 00.4768 00.0000 00.0000 0 NaN NaN
09 6 11 14 0 1 2 1 -1 0 -1 2 NaN NaN 00.6902 00.0000 00.0000 0 NaN NaN
09 6 12 15 0 1 1 4 +1 1 +1 2 NaN NaN 00.4471 00.0000 00.0000 0 NaN NaN
09 6 13 34 0 1 2 1 -1 1 +1 1 1 2 00.5506 00.2869 00.2584 1 0 0
09 6 14 25 0 1 1 3 +1 1 +1 2 NaN NaN 00.7375 00.0000 00.0000 0 NaN NaN
09 6 15 42 1 0 0 0 +0 0 +0 2 NaN NaN 00.3970 00.0000 00.0000 1 NaN NaN
09 6 16 29 0 1 2 4 -1 1 +1 1 2 1 00.5987 00.5247 00.2938 1 1 1
09 6 17 6 0 1 1 1 +1 1 +1 2 NaN NaN 00.6108 00.0000 00.0000 0 NaN NaN
09 6 18 46 0 1 1 1 -1 1 -1 1 2 1 00.9459 01.4814 00.7625 1 0 1
09 6 19 24 0 1 2 3 +1 0 -1 2 NaN NaN 00.4206 00.0000 00.0000 0 NaN NaN
09 6 20 33 1 0 0 0 +0 0 +0 1 2 1 00.6528 00.5130 00.3945 0 0 0
09 6 21 41 0 1 2 1 +1 1 -1 2 NaN NaN 00.5794 00.0000 00.0000 0 NaN NaN
09 6 22 46 0 1 1 1 -1 0 +1 2 NaN NaN 00.3885 00.0000 00.0000 0 NaN NaN
09 6 23 22 1 0 0 0 +0 0 +0 2 NaN NaN 00.5582 00.0000 00.0000 1 NaN NaN
09 6 24 39 0 1 1 1 +1 0 -1 2 NaN NaN 00.3847 00.0000 00.0000 0 NaN NaN
09 6 25 33 0 1 1 1 +1 0 +1 2 NaN NaN 00.3783 00.0000 00.0000 0 NaN NaN
09 6 26 32 0 1 1 1 -1 0 -1 2 NaN NaN 00.2918 00.0000 00.0000 0 NaN NaN
09 6 27 30 0 1 2 4 -1 0 -1 2 NaN NaN 00.3530 00.0000 00.0000 0 NaN NaN
09 6 28 36 0 1 2 4 +1 0 +1 2 NaN NaN 00.3804 00.0000 00.0000 0 NaN NaN
09 6 29 21 1 0 0 0 +0 0 +0 1 1 2 00.5988 00.2690 00.2571 0 0 0
09 6 30 6 0 1 2 1 +1 0 -1 2 NaN NaN 00.3843 00.0000 00.0000 0 NaN NaN
09 6 31 15 0 1 2 1 -1 0 -1 2 NaN NaN 00.3945 00.0000 00.0000 0 NaN NaN
09 6 32 5 0 1 2 1 +1 0 -1 2 NaN NaN 00.4033 00.0000 00.0000 0 NaN NaN
09 6 33 44 0 1 1 4 +1 0 -1 2 NaN NaN 00.6529 00.0000 00.0000 0 NaN NaN
09 6 34 26 0 1 1 3 -1 1 -1 1 2 2 00.8434 00.5991 00.5251 1 0 0
09 6 35 29 0 1 1 1 +1 0 -1 2 NaN NaN 00.4645 00.0000 00.0000 0 NaN NaN
09 6 36 16 0 1 1 1 -1 1 +1 2 NaN NaN 00.4072 00.0000 00.0000 0 NaN NaN
09 6 37 2 0 1 2 1 -1 1 -1 2 NaN NaN 00.4641 00.0000 00.0000 0 NaN NaN
09 6 38 10 0 1 1 3 +1 0 -1 2 NaN NaN 00.3749 00.0000 00.0000 0 NaN NaN
09 6 39 39 0 1 1 1 +1 1 -1 1 1 2 00.8970 00.6666 00.4301 1 1 1
09 6 40 16 0 1 1 1 -1 0 -1 2 NaN NaN 00.5017 00.0000 00.0000 0 NaN NaN
09 6 41 4 0 1 2 4 -1 1 -1 1 1 1 01.1302 01.3059 00.5148 1 0 1
09 6 42 22 1 0 0 0 +0 0 +0 2 NaN NaN 00.4395 00.0000 00.0000 1 NaN NaN
09 6 43 7 1 0 0 0 +0 0 +0 2 NaN NaN 00.4629 00.0000 00.0000 1 NaN NaN
09 6 44 41 0 1 1 1 -1 0 +1 2 NaN NaN 00.4050 00.0000 00.0000 0 NaN NaN
09 6 45 5 0 1 1 4 -1 1 +1 1 1 2 00.7018 00.5600 00.5834 1 1 0
09 6 46 20 1 0 0 0 +0 0 +0 2 NaN NaN 00.4566 00.0000 00.0000 1 NaN NaN
09 6 47 36 0 1 2 3 +1 1 +1 1 2 1 00.7201 00.4321 01.6466 1 1 0
09 6 48 37 0 1 2 1 -1 1 +1 1 2 1 00.7716 01.7628 00.6961 1 1 1
09 6 49 8 1 0 0 0 +0 0 +0 2 NaN NaN 00.4530 00.0000 00.0000 1 NaN NaN
09 6 50 42 0 1 2 1 +1 1 +1 2 NaN NaN 00.8598 00.0000 00.0000 0 NaN NaN
09 6 51 1 1 0 0 0 +0 0 +0 1 2 2 00.8498 00.5255 00.8064 0 0 0
09 6 52 32 0 1 1 3 -1 1 +1 2 NaN NaN 00.7992 00.0000 00.0000 0 NaN NaN
09 6 53 48 0 1 1 4 -1 0 -1 2 NaN NaN 00.4719 00.0000 00.0000 0 NaN NaN
09 6 54 40 0 1 1 4 +1 1 -1 1 2 1 00.6227 01.0441 01.4955 1 0 0
09 6 55 47 1 0 0 0 +0 0 +0 2 NaN NaN 00.6429 00.0000 00.0000 1 NaN NaN
09 6 56 1 0 1 2 1 -1 0 +1 2 NaN NaN 00.4973 00.0000 00.0000 0 NaN NaN
09 6 57 40 0 1 2 1 +1 0 +1 2 NaN NaN 00.5019 00.0000 00.0000 0 NaN NaN
09 6 58 35 0 1 1 3 -1 0 -1 2 NaN NaN 00.5386 00.0000 00.0000 0 NaN NaN
09 6 59 19 0 1 1 4 -1 0 +1 2 NaN NaN 00.5899 00.0000 00.0000 0 NaN NaN
09 6 60 17 0 1 1 4 -1 1 -1 1 1 1 00.8797 00.8901 02.0042 1 1 1
09 6 61 3 0 1 2 3 -1 0 +1 2 NaN NaN 00.4907 00.0000 00.0000 0 NaN NaN
09 6 62 18 0 1 1 1 -1 1 +1 1 1 2 00.6722 01.9070 01.6505 1 1 0
09 6 63 43 0 1 1 3 -1 0 +1 2 NaN NaN 00.5996 00.0000 00.0000 0 NaN NaN
09 6 64 25 0 1 2 3 +1 0 +1 2 NaN NaN 00.6643 00.0000 00.0000 0 NaN NaN
09 6 65 14 0 1 2 4 +1 1 -1 2 NaN NaN 00.7418 00.0000 00.0000 0 NaN NaN
09 6 66 31 0 1 2 1 +1 1 +1 2 NaN NaN 01.1526 00.0000 00.0000 0 NaN NaN
09 6 67 8 0 1 1 3 +1 1 -1 1 1 2 00.7948 00.3926 00.4231 1 1 1
09 6 68 27 0 1 1 1 +1 1 +1 1 2 1 00.7353 00.4318 00.5890 1 0 0
09 6 69 12 0 1 1 1 -1 1 -1 2 NaN NaN 00.5903 00.0000 00.0000 0 NaN NaN
09 6 70 24 0 1 2 1 -1 1 -1 1 2 1 00.6553 00.6572 00.8213 1 1 1
09 6 71 30 1 0 0 0 +0 0 +0 2 NaN NaN 01.1174 00.0000 00.0000 1 NaN NaN
09 6 72 3 0 1 1 1 +1 1 -1 1 1 2 00.5849 01.1359 00.2557 1 1 1
09 6 73 9 0 1 2 4 +1 1 +1 2 NaN NaN 00.7508 00.0000 00.0000 0 NaN NaN
09 6 74 27 1 0 0 0 +0 0 +0 2 NaN NaN 00.4410 00.0000 00.0000 1 NaN NaN
09 6 75 13 0 1 1 4 +1 0 +1 2 NaN NaN 00.5125 00.0000 00.0000 0 NaN NaN
09 6 76 34 0 1 1 3 +1 0 +1 2 NaN NaN 00.4684 00.0000 00.0000 0 NaN NaN
09 6 77 12 0 1 2 1 +1 0 +1 2 NaN NaN 00.4591 00.0000 00.0000 0 NaN NaN
09 6 78 47 0 1 2 3 +1 1 -1 1 2 2 01.8738 00.5309 00.9560 1 1 1
09 6 79 48 0 1 2 3 -1 1 -1 2 NaN NaN 01.0064 00.0000 00.0000 0 NaN NaN
09 6 80 38 0 1 2 3 -1 1 +1 1 2 2 00.6228 00.9163 00.6371 1 1 0
