sub block trial obj foil exp maze DP turn attend pos resp1 resp2 resp3 RT1 RT2 RT3 correct1 correct2 correct3
Subject 01 -- attend vehicles
01 1 01 46 0 1 2 1 +1 0 -1 1 1 2 05.6844 01.1854 01.2309 1 0 1
01 1 02 19 1 0 0 0 +0 0 +0 1 1 1 03.2480 01.3505 00.7812 0 0 0
01 1 03 3 0 1 2 4 -1 0 -1 1 2 1 01.5746 01.0116 00.6810 1 1 1
01 1 04 12 0 1 2 4 +1 1 +1 1 1 2 03.5425 00.6244 00.9977 1 0 1
01 1 05 18 0 1 1 1 +1 0 -1 1 2 2 01.9262 00.7402 00.7402 1 0 1
01 1 06 14 1 0 0 0 +0 0 +0 2 NaN NaN 03.2966 00.0000 00.0000 1 NaN NaN
01 1 07 31 1 0 0 0 +0 0 +0 2 NaN NaN 01.0398 00.0000 00.0000 1 NaN NaN
01 1 08 29 0 1 2 4 -1 0 +1 1 1 1 01.1344 00.7341 00.7506 1 0 1
01 1 09 20 0 1 1 1 -1 1 +1 2 NaN NaN 01.4809 00.0000 00.0000 0 NaN NaN
01 1 10 17 0 1 2 4 +1 1 -1 1 2 2 00.9969 02.5542 01.3266 1 1 1
01 1 11 30 1 0 0 0 +0 0 +0 2 NaN NaN 01.3612 00.0000 00.0000 1 NaN NaN
01 1 12 7 0 1 2 1 +1 0 +1 2 NaN NaN 01.0100 00.0000 00.0000 0 NaN NaN
01 1 13 48 0 1 2 4 -1 1 +1 1 1 2 01.5219 01.9537 00.7351 1 0 0
01 1 14 16 0 1 1 3 -1 1 +1 2 NaN NaN 01.0667 00.0000 00.0000 0 NaN NaN
01 1 15 24 0 1 1 3 -1 1 -1 2 NaN NaN 01.0962 00.0000 00.0000 0 NaN NaN
01 1 16 1 0 1 1 4 -1 0 -1 2 NaN NaN 01.0765 00.0000 00.0000 0 NaN NaN
01 1 17 13 0 1 2 4 -1 1 -1 2 NaN NaN 03.4094 00.0000 00.0000 0 NaN NaN
01 1 18 8 0 1 2 1 +1 1 +1 1 2 2 02.2205 01.7401 00.5948 1 1 1
01 1 19 35 0 1 2 1 +1 0 -1 2 NaN NaN 00.7718 00.0000 00.0000 0 NaN NaN
01 1 20 10 0 1 1 4 -1 1 +1 1 1 2 01.3414 00.6442 00.5032 1 1 0
01 1 21 28 0 1 1 1 +1 1 +1 1 1 2 01.2289 00.8085 00.7895 1 1 1
01 1 22 36 0 1 1 4 -1 1 -1 1 1 1 01.3590 01.9417 01.2037 1 1 1
01 1 23 18 0 1 2 1 -1 1 -1 2 NaN NaN 01.4999 00.0000 00.0000 0 NaN NaN
01 1 24 9 0 1 2 1 +1 1 +1 1 2 2 01.0954 00.5046 00.3522 1 1 1
01 1 25 39 0 1 1 1 +1 0 -1 1 1 2 02.9717 00.9108 00.8077 1 1 1
01 1 26 5 0 1 2 1 +1 0 +1 2 NaN NaN 01.0543 00.0000 00.0000 0 NaN NaN
01 1 27 11 0 1 1 1 +1 1 +1 1 1 2 01.5959 00.8242 00.4679 1 1 1
01 1 28 29 0 1 1 1 -1 1 -1 2 NaN NaN 01.0339 00.0000 00.0000 0 NaN NaN
01 1 29 43 0 1 2 1 +1 1 -1 1 1 2 01.2882 00.6570 00.3897 1 0 1
01 1 30 45 0 1 1 3 +1 0 +1 2 NaN NaN 01.3912 00.0000 00.0000 0 NaN NaN
01 1 31 6 0 1 2 1 +1 1 -1 1 2 2 01.3750 01.2357 01.3926 1 1 1
01 1 32 11 0 1 2 3 -1 0 +1 2 NaN NaN 00.9921 00.0000 00.0000 0 NaN NaN
01 1 33 6 0 1 1 1 +1 0 +1 2 NaN NaN 01.1526 00.0000 00.0000 0 NaN NaN
01 1 34 41 0 1 2 3 -1 1 +1 2 NaN NaN 00.9861 00.0000 00.0000 0 NaN NaN
01 1 35 9 0 1 1 1 +1 0 +1 1 1 2 00.9712 00.5132 00.8116 1 1 1
01 1 36 2 0 1 1 1 -1 1 -1 2 NaN NaN 00.8675 00.0000 00.0000 0 NaN NaN
01 1 37 4 0 1 1 1 -1 0 +1 2 NaN NaN 00.9209 00.0000 00.0000 0 NaN NaN
01 1 38 19 0 1 1 4 +1 0 +1 2 NaN NaN 00.8447 00.0000 00.0000 0 NaN NaN
01 1 39 7 0 1 2 1 -1 1 +1 2 NaN NaN 01.2828 00.0000 00.0000 0 NaN NaN
01 1 40 8 0 1 1 1 -1 0 -1 2 NaN NaN 01.0153 00.0000 00.0000 0 NaN NaN
01 1 41 13 0 1 2 1 -1 0 -1 2 NaN NaN 01.1430 00.0000 00.0000 0 NaN NaN
01 1 42 24 1 0 0 0 +0 0 +0 2 NaN NaN 00.9927 00.0000 00.0000 1 NaN NaN
01 1 43 30 1 0 0 0 +0 0 +0 2 NaN NaN 00.7369 00.0000 00.0000 1 NaN NaN
01 1 44 15 1 0 0 0 +0 0 +0 2 NaN NaN 00.7005 00.0000 00.0000 1 NaN NaN
01 1 45 25 0 1 1 4 +1 1 -1 2 NaN NaN 01.4807 00.0000 00.0000 0 NaN NaN
01 1 46 38 0 1 1 1 -1 1 +1 2 NaN NaN 01.1084 00.0000 00.0000 0 NaN NaN
01 1 47 37 0 1 1 3 +1 1 +1 1 2 2 00.8478 00.7634 01.4506 1 0 1
01 1 48 21 0 1 2 4 +1 0 -1 1 2 2 01.4475 00.4740 00.6115 1 1 1
01 1 49 28 0 1 1 3 -1 0 +1 1 1 2 00.9474 00.3149 01.1969 1 1 0
01 1 50 12 0 1 1 1 -1 0 -1 2 NaN NaN 00.9803 00.0000 00.0000 0 NaN NaN
01 1 51 27 1 0 0 0 +0 0 +0 2 NaN NaN 00.8527 00.0000 00.0000 1 NaN NaN
01 1 52 31 0 1 2 3 +1 1 -1 1 2 2 01.0833 00.8452 00.6642 1 1 1
01 1 53 40 0 1 2 1 -1 0 +1 2 NaN NaN 01.2539 00.0000 00.0000 0 NaN NaN
01 1 54 21 0 1 2 3 +1 1 +1 2 NaN NaN 00.8278 00.0000 00.0000 0 NaN NaN
01 1 55 10 0 1 2 3 +1 0 -1 2 NaN NaN 00.6585 00.0000 00.0000 0 NaN NaN
01 1 56 42 1 0 0 0 +0 0 +0 2 NaN NaN 00.7368 00.0000 00.0000 1 NaN NaN
01 1 57 40 0 1 1 3 +1 1 -1 1 2 2 01.9158 01.0828 00.6526 1 0 1
01 1 58 35 1 0 0 0 +0 0 +0 2 NaN NaN 01.0516 00.0000 00.0000 1 NaN NaN
01 1 59 32 1 0 0 0 +0 0 +0 2 NaN NaN 01.0493 00.0000 00.0000 1 NaN NaN
01 1 60 25 0 1 2 1 -1 0 +1 1 2 2 01.1423 01.6701 00.4154 1 1 0
01 1 61 17 1 0 0 0 +0 0 +0 2 NaN NaN 01.2242 00.0000 00.0000 1 NaN NaN
01 1 62 1 1 0 0 0 +0 0 +0 2 NaN NaN 00.8309 00.0000 00.0000 1 NaN NaN
01 1 63 38 0 1 2 1 -1 0 -1 2 NaN NaN 00.5343 00.0000 00.0000 0 NaN NaN
01 1 64 44 0 1 2 4 +1 0 +1 2 NaN NaN 00.8577 00.0000 00.0000 0 NaN NaN
01 1 65 32 0 1 1 1 +1 1 -1 1 1 1 01.7438 00.9662 00.6210 1 1 0
01 1 66 46 0 1 2 3 -1 1 -1 2 NaN NaN 00.9574 00.0000 00.0000 0 NaN NaN
01 1 67 23 0 1 1 3 +1 0 -1 2 NaN NaN 00.7194 00.0000 00.0000 0 NaN NaN
01 1 68 26 0 1 1 3 -1 0 -1 2 NaN NaN 00.8109 00.0000 00.0000 0 NaN NaN
01 1 69 3 1 0 0 0 +0 0 +0 2 NaN NaN 00.7229 00.0000 00.0000 1 NaN NaN
01 1 70 44 1 0 0 0 +0 0 +0 2 NaN NaN 00.8787 00.0000 00.0000 1 NaN NaN
01 1 71 5 0 1 1 1 +1 1 -1 1 2 1 00.9479 00.4114 00.2651 1 0 0
01 1 72 2 0 1 2 3 +1 0 +1 2 NaN NaN 00.9517 00.0000 00.0000 0 NaN NaN
01 1 73 27 0 1 2 1 -1 1 -1 1 1 2 01.8976 00.2972 00.2999 1 0 0
01 1 74 22 0 1 1 1 -1 0 +1 2 NaN NaN 00.4896 00.0000 00.0000 0 NaN NaN
01 1 75 42 0 1 2 1 -1 1 +1 2 NaN NaN 01.1190 00.0000 00.0000 0 NaN NaN
01 1 76 47 0 1 1 4 -1 0 +1 2 NaN NaN 00.8585 00.0000 00.0000 0 NaN NaN
01 1 77 39 0 1 1 4 +1 1 +1 2 NaN NaN 00.7991 00.0000 00.0000 0 NaN NaN
01 1 78 4 1 0 0 0 +0 0 +0 1 2 2 00.6479 00.2680 00.1762 0 0 0
01 1 79 20 0 1 2 3 -1 0 -1 2 NaN NaN 00.6589 00.0000 00.0000 0 NaN NaN
01 1 80 48 0 1 1 4 +1 0 -1 2 NaN NaN 00.6091 00.0000 00.0000 0 NaN NaN
01 2 01 26 0 1 1 3 -1 0 -1 2 NaN NaN 00.9340 00.0000 00.0000 0 NaN NaN
01 2 02 25 0 1 1 4 +1 1 -1 2 NaN NaN 01.1766 00.0000 00.0000 0 NaN NaN
01 2 03 22 0 1 1 1 -1 0 +1 2 NaN NaN 00.4815 00.0000 00.0000 0 NaN NaN
01 2 04 44 1 0 0 0 +0 0 +0 1 2 2 00.8555 00.2432 00.8240 0 0 0
01 2 05 11 0 1 1 1 +1 1 +1 2 NaN NaN 02.9754 00.0000 00.0000 0 NaN NaN
01 2 06 20 0 1 2 3 -1 0 -1 2 NaN NaN 01.9173 00.0000 00.0000 0 NaN NaN
01 2 07 41 0 1 2 3 -1 1 +1 2 NaN NaN 01.0473 00.0000 00.0000 0 NaN NaN
01 2 08 21 0 1 2 4 +1 0 -1 1 2 2 00.9816 00.2039 00.4028 1 1 1
01 2 09 28 0 1 1 3 -1 0 +1 1 1 1 00.7962 00.2341 00.5275 1 1 1
01 2 10 35 1 0 0 0 +0 0 +0 2 NaN NaN 01.1875 00.0000 00.0000 1 NaN NaN
01 2 11 2 0 1 2 3 +1 0 +1 2 NaN NaN 01.2916 00.0000 00.0000 0 NaN NaN
01 2 12 21 0 1 2 3 +1 1 +1 2 NaN NaN 00.7840 00.0000 00.0000 0 NaN NaN
01 2 13 12 0 1 1 1 -1 0 -1 2 NaN NaN 00.9528 00.0000 00.0000 0 NaN NaN
01 2 14 31 0 1 2 3 +1 1 -1 2 NaN NaN 12.8914 00.0000 00.0000 0 NaN NaN
01 2 15 29 0 1 1 1 -1 1 -1 2 NaN NaN 01.6583 00.0000 00.0000 0 NaN NaN
01 2 16 8 0 1 2 1 +1 1 +1 1 1 2 01.0714 01.0259 00.2301 1 0 1
01 2 17 20 0 1 1 1 -1 1 +1 2 NaN NaN 01.0305 00.0000 00.0000 0 NaN NaN
01 2 18 48 0 1 2 4 -1 1 +1 1 1 2 01.1889 00.6266 01.0314 1 0 0
01 2 19 46 0 1 2 1 +1 0 -1 1 2 1 01.7661 00.4908 00.2618 1 1 0
01 2 20 16 0 1 1 3 -1 1 +1 1 2 1 01.8603 00.4540 00.1944 1 0 1
01 2 21 13 0 1 2 1 -1 0 -1 2 NaN NaN 00.8677 00.0000 00.0000 0 NaN NaN
01 2 22 35 0 1 2 1 +1 0 -1 2 NaN NaN 00.4737 00.0000 00.0000 0 NaN NaN
01 2 23 42 0 1 2 1 -1 1 +1 1 1 2 00.8158 00.5569 00.1806 1 0 0
01 2 24 3 1 0 0 0 +0 0 +0 2 NaN NaN 00.7590 00.0000 00.0000 1 NaN NaN
01 2 25 30 1 0 0 0 +0 0 +0 2 NaN NaN 00.8652 00.0000 00.0000 1 NaN NaN
01 2 26 10 0 1 1 4 -1 1 +1 1 1 2 00.7432 00.3433 00.1517 1 1 0
01 2 27 12 0 1 2 4 +1 1 +1 1 1 2 04.9557 00.7957 00.2015 1 0 1
01 2 28 15 1 0 0 0 +0 0 +0 2 NaN NaN 00.5220 00.0000 00.0000 1 NaN NaN
01 2 29 14 1 0 0 0 +0 0 +0 2 NaN NaN 00.7026 00.0000 00.0000 1 NaN NaN
01 2 30 38 0 1 1 1 -1 1 +1 1 2 1 00.9390 00.3551 00.1149 1 0 1
01 2 31 3 0 1 2 4 -1 0 -1 2 NaN NaN 00.7125 00.0000 00.0000 0 NaN NaN
01 2 32 46 0 1 2 3 -1 1 -1 2 NaN NaN 01.1566 00.0000 00.0000 0 NaN NaN
01 2 33 4 1 0 0 0 +0 0 +0 1 1 2 00.8780 02.0884 00.2404 0 0 0
01 2 34 36 0 1 1 4 -1 1 -1 1 1 1 01.1363 00.9441 00.6315 1 1 1
01 2 35 40 0 1 1 3 +1 1 -1 1 1 2 08.6306 01.0192 00.1119 1 1 1
01 2 36 42 1 0 0 0 +0 0 +0 2 NaN NaN 00.5653 00.0000 00.0000 1 NaN NaN
01 2 37 9 0 1 2 1 +1 1 +1 1 2 1 00.9671 00.5099 00.0878 1 1 0
01 2 38 43 0 1 2 1 +1 1 -1 1 2 2 10.2377 00.7848 00.5272 1 1 1
01 2 39 2 0 1 1 1 -1 1 -1 1 2 2 00.8824 00.2848 00.2402 1 0 0
01 2 40 44 0 1 2 4 +1 0 +1 2 NaN NaN 00.7360 00.0000 00.0000 0 NaN NaN
01 2 41 10 0 1 2 3 +1 0 -1 2 NaN NaN 00.6996 00.0000 00.0000 0 NaN NaN
01 2 42 31 1 0 0 0 +0 0 +0 2 NaN NaN 00.5846 00.0000 00.0000 1 NaN NaN
01 2 43 5 0 1 2 1 +1 0 +1 2 NaN NaN 00.5865 00.0000 00.0000 0 NaN NaN
01 2 44 6 0 1 1 1 +1 0 +1 2 NaN NaN 00.4924 00.0000 00.0000 0 NaN NaN
01 2 45 17 0 1 2 4 +1 1 -1 1 1 2 00.6896 00.2758 00.1039 1 0 1
01 2 46 25 0 1 2 1 -1 0 +1 1 2 1 11.2912 00.3208 00.0988 1 1 1
01 2 47 1 1 0 0 0 +0 0 +0 2 NaN NaN 01.7687 00.0000 00.0000 1 NaN NaN
01 2 48 5 0 1 1 1 +1 1 -1 1 2 2 00.8246 00.3084 00.2636 1 0 1
01 2 49 32 1 0 0 0 +0 0 +0 2 NaN NaN 00.6147 00.0000 00.0000 1 NaN NaN
01 2 50 7 0 1 2 1 -1 1 +1 2 NaN NaN 00.8865 00.0000 00.0000 0 NaN NaN
01 2 51 17 1 0 0 0 +0 0 +0 2 NaN NaN 00.8270 00.0000 00.0000 1 NaN NaN
01 2 52 1 0 1 1 4 -1 0 -1 2 NaN NaN 01.2179 00.0000 00.0000 0 NaN NaN
01 2 53 27 1 0 0 0 +0 0 +0 2 NaN NaN 00.6491 00.0000 00.0000 1 NaN NaN
01 2 54 4 0 1 1 1 -1 0 +1 2 NaN NaN 00.4235 00.0000 00.0000 0 NaN NaN
01 2 55 23 0 1 1 3 +1 0 -1 2 NaN NaN 00.5118 00.0000 00.0000 0 NaN NaN
01 2 56 27 0 1 2 1 -1 1 -1 1 2 1 01.0763 00.2943 00.1369 1 1 1
01 2 57 24 0 1 1 3 -1 1 -1 2 NaN NaN 01.0204 00.0000 00.0000 0 NaN NaN
01 2 58 18 0 1 1 1 +1 0 -1 2 NaN NaN 00.4599 00.0000 00.0000 0 NaN NaN
01 2 59 32 0 1 1 1 +1 1 -1 1 1 2 00.9788 01.5769 00.1818 1 1 1
01 2 60 39 0 1 1 1 +1 0 -1 2 NaN NaN 09.7364 00.0000 00.0000 0 NaN NaN
01 2 61 7 0 1 2 1 +1 0 +1 2 NaN NaN 00.5685 00.0000 00.0000 0 NaN NaN
01 2 62 48 0 1 1 4 +1 0 -1 2 NaN NaN 00.6825 00.0000 00.0000 0 NaN NaN
01 2 63 40 0 1 2 1 -1 0 +1 2 NaN NaN 00.6316 00.0000 00.0000 0 NaN NaN
01 2 64 24 1 0 0 0 +0 0 +0 2 NaN NaN 00.9346 00.0000 00.0000 1 NaN NaN
01 2 65 6 0 1 2 1 +1 1 -1 1 2 2 01.0177 00.1556 00.3554 1 1 1
01 2 66 39 0 1 1 4 +1 1 +1 2 NaN NaN 01.2157 00.0000 00.0000 0 NaN NaN
01 2 67 8 0 1 1 1 -1 0 -1 2 NaN NaN 00.6281 00.0000 00.0000 0 NaN NaN
01 2 68 11 0 1 2 3 -1 0 +1 1 2 2 00.6759 00.9667 00.2331 1 1 0
01 2 69 28 0 1 1 1 +1 1 +1 1 2 1 00.9537 00.8334 00.5735 1 0 0
01 2 70 30 1 0 0 0 +0 0 +0 2 NaN NaN 01.7434 00.0000 00.0000 1 NaN NaN
01 2 71 29 0 1 2 4 -1 0 +1 2 NaN NaN 00.8330 00.0000 00.0000 0 NaN NaN
01 2 72 19 1 0 0 0 +0 0 +0 2 NaN NaN 00.9205 00.0000 00.0000 1 NaN NaN
01 2 73 9 0 1 1 1 +1 0 +1 2 NaN NaN 00.4277 00.0000 00.0000 0 NaN NaN
01 2 74 18 0 1 2 1 -1 1 -1 2 NaN NaN 00.8679 00.0000 00.0000 0 NaN NaN
01 2 75 13 0 1 2 4 -1 1 -1 1 2 1 01.1431 00.3423 00.2309 1 1 1
01 2 76 38 0 1 2 1 -1 0 -1 2 NaN NaN 00.5194 00.0000 00.0000 0 NaN NaN
01 2 77 45 0 1 1 3 +1 0 +1 2 NaN NaN 00.4433 00.0000 00.0000 0 NaN NaN
01 2 78 19 0 1 1 4 +1 0 +1 2 NaN NaN 00.6749 00.0000 00.0000 0 NaN NaN
01 2 79 47 0 1 1 4 -1 0 +1 1 2 2 00.6385 00.3704 00.3553 1 0 0
01 2 80 37 0 1 1 3 +1 1 +1 1 2 2 00.9902 00.6268 00.1849 1 0 1
01 3 01 3 1 0 0 0 +0 0 +0 2 NaN NaN 02.5745 00.0000 00.0000 1 NaN NaN
01 3 02 12 0 1 1 1 -1 0 -1 2 NaN NaN 00.6195 00.0000 00.0000 0 NaN NaN
01 3 03 25 0 1 2 1 -1 0 +1 1 2 2 00.6996 00.3494 00.2061 1 1 0
01 3 04 45 0 1 1 3 +1 0 +1 2 NaN NaN 00.9753 00.0000 00.0000 0 NaN NaN
01 3 05 38 0 1 1 1 -1 1 +1 1 2 1 00.6732 00.2601 00.0565 1 0 1
01 3 06 28 0 1 1 3 -1 0 +1 2 NaN NaN 00.8963 00.0000 00.0000 0 NaN NaN
01 3 07 16 0 1 1 3 -1 1 +1 1 2 1 00.9960 00.3935 00.5521 1 0 1
01 3 08 41 0 1 2 3 -1 1 +1 2 NaN NaN 00.8913 00.0000 00.0000 0 NaN NaN
01 3 09 4 0 1 1 1 -1 0 +1 2 NaN NaN 00.4638 00.0000 00.0000 0 NaN NaN
01 3 10 30 1 0 0 0 +0 0 +0 2 NaN NaN 00.4219 00.0000 00.0000 1 NaN NaN
01 3 11 39 0 1 1 1 +1 0 -1 2 NaN NaN 00.5100 00.0000 00.0000 0 NaN NaN
01 3 12 29 0 1 1 1 -1 1 -1 2 NaN NaN 00.8501 00.0000 00.0000 0 NaN NaN
01 3 13 3 0 1 2 4 -1 0 -1 2 NaN NaN 00.4886 00.0000 00.0000 0 NaN NaN
01 3 14 44 0 1 2 4 +1 0 +1 2 NaN NaN 00.9429 00.0000 00.0000 0 NaN NaN
01 3 15 25 0 1 1 4 +1 1 -1 2 NaN NaN 01.5854 00.0000 00.0000 0 NaN NaN
01 3 16 32 0 1 1 1 +1 1 -1 1 1 2 00.6972 01.8193 00.2064 1 1 1
01 3 17 48 0 1 2 4 -1 1 +1 1 2 1 01.9518 00.4931 00.3595 1 1 1
01 3 18 27 1 0 0 0 +0 0 +0 2 NaN NaN 01.5864 00.0000 00.0000 1 NaN NaN
01 3 19 8 0 1 1 1 -1 0 -1 2 NaN NaN 00.7625 00.0000 00.0000 0 NaN NaN
01 3 20 39 0 1 1 4 +1 1 +1 2 NaN NaN 00.8205 00.0000 00.0000 0 NaN NaN
01 3 21 2 0 1 1 1 -1 1 -1 2 NaN NaN 00.4760 00.0000 00.0000 0 NaN NaN
01 3 22 6 0 1 1 1 +1 0 +1 2 NaN NaN 03.6500 00.0000 00.0000 0 NaN NaN
01 3 23 11 0 1 1 1 +1 1 +1 1 2 2 00.7394 00.2435 00.3768 1 0 1
01 3 24 11 0 1 2 3 -1 0 +1 2 NaN NaN 00.4504 00.0000 00.0000 0 NaN NaN
01 3 25 9 0 1 2 1 +1 1 +1 1 2 1 00.6652 00.3326 00.0939 1 1 0
01 3 26 13 0 1 2 4 -1 1 -1 2 NaN NaN 00.7874 00.0000 00.0000 0 NaN NaN
01 3 27 27 0 1 2 1 -1 1 -1 1 1 2 00.6847 00.3035 00.1942 1 0 0
01 3 28 44 1 0 0 0 +0 0 +0 2 NaN NaN 00.9636 00.0000 00.0000 1 NaN NaN
01 3 29 20 0 1 1 1 -1 1 +1 2 NaN NaN 01.4291 00.0000 00.0000 0 NaN NaN
01 3 30 36 0 1 1 4 -1 1 -1 1 1 1 00.6267 00.7595 00.1993 1 1 1
01 3 31 37 0 1 1 3 +1 1 +1 1 2 2 01.8172 00.2844 00.2879 1 0 1
01 3 32 24 1 0 0 0 +0 0 +0 2 NaN NaN 00.9903 00.0000 00.0000 1 NaN NaN
01 3 33 6 0 1 2 1 +1 1 -1 1 2 2 00.9588 00.3260 00.3277 1 1 1
01 3 34 24 0 1 1 3 -1 1 -1 2 NaN NaN 00.8199 00.0000 00.0000 0 NaN NaN
01 3 35 31 1 0 0 0 +0 0 +0 2 NaN NaN 00.4120 00.0000 00.0000 1 NaN NaN
01 3 36 43 0 1 2 1 +1 1 -1 1 1 2 00.6607 00.2804 00.1397 1 0 1
01 3 37 14 1 0 0 0 +0 0 +0 2 NaN NaN 00.6562 00.0000 00.0000 1 NaN NaN
01 3 38 5 0 1 1 1 +1 1 -1 2 NaN NaN 00.5109 00.0000 00.0000 0 NaN NaN
01 3 39 40 0 1 1 3 +1 1 -1 1 1 1 00.5794 00.2504 00.3832 1 1 0
01 3 40 29 0 1 2 4 -1 0 +1 2 NaN NaN 00.4894 00.0000 00.0000 0 NaN NaN
01 3 41 4 1 0 0 0 +0 0 +0 2 NaN NaN 00.6709 00.0000 00.0000 1 NaN NaN
01 3 42 17 0 1 2 4 +1 1 -1 1 2 2 00.8771 00.5195 00.3052 1 1 1
01 3 43 40 0 1 2 1 -1 0 +1 2 NaN NaN 00.6228 00.0000 00.0000 0 NaN NaN
01 3 44 26 0 1 1 3 -1 0 -1 2 NaN NaN 00.4952 00.0000 00.0000 0 NaN NaN
01 3 45 23 0 1 1 3 +1 0 -1 2 NaN NaN 00.8365 00.0000 00.0000 0 NaN NaN
01 3 46 21 0 1 2 3 +1 1 +1 2 NaN NaN 00.6680 00.0000 00.0000 0 NaN NaN
01 3 47 2 0 1 2 3 +1 0 +1 2 NaN NaN 00.4264 00.0000 00.0000 0 NaN NaN
01 3 48 10 0 1 2 3 +1 0 -1 1 2 1 00.4659 00.7657 00.2208 1 1 0
01 3 49 10 0 1 1 4 -1 1 +1 1 1 2 00.8940 00.2957 00.8743 1 1 0
01 3 50 13 0 1 2 1 -1 0 -1 2 NaN NaN 00.5764 00.0000 00.0000 0 NaN NaN
01 3 51 35 0 1 2 1 +1 0 -1 2 NaN NaN 00.4341 00.0000 00.0000 0 NaN NaN
01 3 52 22 0 1 1 1 -1 0 +1 2 NaN NaN 00.3625 00.0000 00.0000 0 NaN NaN
01 3 53 30 1 0 0 0 +0 0 +0 1 2 2 00.6453 00.2975 00.4282 0 0 0
01 3 54 12 0 1 2 4 +1 1 +1 2 NaN NaN 00.3883 00.0000 00.0000 0 NaN NaN
01 3 55 19 0 1 1 4 +1 0 +1 2 NaN NaN 00.5259 00.0000 00.0000 0 NaN NaN
01 3 56 18 0 1 2 1 -1 1 -1 2 NaN NaN 00.8652 00.0000 00.0000 0 NaN NaN
01 3 57 46 0 1 2 3 -1 1 -1 2 NaN NaN 00.7110 00.0000 00.0000 0 NaN NaN
01 3 58 21 0 1 2 4 +1 0 -1 2 NaN NaN 00.4348 00.0000 00.0000 0 NaN NaN
01 3 59 48 0 1 1 4 +1 0 -1 1 2 2 00.5388 00.3399 00.2919 1 0 1
01 3 60 47 0 1 1 4 -1 0 +1 2 NaN NaN 00.4669 00.0000 00.0000 0 NaN NaN
01 3 61 8 0 1 2 1 +1 1 +1 2 NaN NaN 00.2657 00.0000 00.0000 0 NaN NaN
01 3 62 42 1 0 0 0 +0 0 +0 2 NaN NaN 00.8563 00.0000 00.0000 1 NaN NaN
01 3 63 46 0 1 2 1 +1 0 -1 2 NaN NaN 03.9828 00.0000 00.0000 0 NaN NaN
01 3 64 20 0 1 2 3 -1 0 -1 2 NaN NaN 00.6096 00.0000 00.0000 0 NaN NaN
01 3 65 17 1 0 0 0 +0 0 +0 2 NaN NaN 00.6582 00.0000 00.0000 1 NaN NaN
01 3 66 9 0 1 1 1 +1 0 +1 2 NaN NaN 00.4959 00.0000 00.0000 0 NaN NaN
01 3 67 42 0 1 2 1 -1 1 +1 1 1 2 00.7085 00.3738 00.2136 1 0 0
01 3 68 7 0 1 2 1 +1 0 +1 2 NaN NaN 00.9347 00.0000 00.0000 0 NaN NaN
01 3 69 15 1 0 0 0 +0 0 +0 2 NaN NaN 00.5214 00.0000 00.0000 1 NaN NaN
01 3 70 7 0 1 2 1 -1 1 +1 1 2 2 01.0374 00.3694 00.2093 1 1 0
01 3 71 35 1 0 0 0 +0 0 +0 2 NaN NaN 00.8984 00.0000 00.0000 1 NaN NaN
01 3 72 28 0 1 1 1 +1 1 +1 1 2 1 00.5986 00.6846 00.4313 1 0 0
01 3 73 19 1 0 0 0 +0 0 +0 1 2 2 01.3507 00.2533 00.5303 0 0 0
01 3 74 32 1 0 0 0 +0 0 +0 2 NaN NaN 00.6295 00.0000 00.0000 1 NaN NaN
01 3 75 18 0 1 1 1 +1 0 -1 2 NaN NaN 00.9332 00.0000 00.0000 0 NaN NaN
01 3 76 38 0 1 2 1 -1 0 -1 2 NaN NaN 00.9685 00.0000 00.0000 0 NaN NaN
01 3 77 1 0 1 1 4 -1 0 -1 2 NaN NaN 00.6343 00.0000 00.0000 0 NaN NaN
01 3 78 1 1 0 0 0 +0 0 +0 2 NaN NaN 00.8573 00.0000 00.0000 1 NaN NaN
01 3 79 31 0 1 2 3 +1 1 -1 1 1 2 00.6395 00.2912 01.2556 1 0 1
01 3 80 5 0 1 2 1 +1 0 +1 2 NaN NaN 00.5415 00.0000 00.0000 0 NaN NaN
01 4 01 24 0 1 1 3 -1 1 -1 2 NaN NaN 01.0609 00.0000 00.0000 0 NaN NaN
01 4 02 7 0 1 2 1 +1 0 +1 2 NaN NaN 00.5306 00.0000 00.0000 0 NaN NaN
01 4 03 40 0 1 1 3 +1 1 -1 1 1 2 00.7099 00.2152 00.3174 1 1 1
01 4 04 39 0 1 1 4 +1 1 +1 2 NaN NaN 00.7464 00.0000 00.0000 0 NaN NaN
01 4 05 2 0 1 2 3 +1 0 +1 2 NaN NaN 00.5487 00.0000 00.0000 0 NaN NaN
01 4 06 20 0 1 1 1 -1 1 +1 2 NaN NaN 00.6479 00.0000 00.0000 0 NaN NaN
01 4 07 10 0 1 1 4 -1 1 +1 1 1 2 00.6629 00.2824 00.1098 1 1 0
01 4 08 44 1 0 0 0 +0 0 +0 2 NaN NaN 00.9311 00.0000 00.0000 1 NaN NaN
01 4 09 41 0 1 2 3 -1 1 +1 2 NaN NaN 00.6778 00.0000 00.0000 0 NaN NaN
01 4 10 31 0 1 2 3 +1 1 -1 1 1 2 00.8988 01.1003 00.2055 1 0 1
01 4 11 8 0 1 1 1 -1 0 -1 2 NaN NaN 00.4626 00.0000 00.0000 0 NaN NaN
01 4 12 24 1 0 0 0 +0 0 +0 2 NaN NaN 00.6928 00.0000 00.0000 1 NaN NaN
01 4 13 8 0 1 2 1 +1 1 +1 1 2 1 00.7376 01.6664 00.5238 1 1 0
01 4 14 37 0 1 1 3 +1 1 +1 1 2 2 02.0638 00.6644 00.2197 1 0 1
01 4 15 18 0 1 1 1 +1 0 -1 2 NaN NaN 01.7570 00.0000 00.0000 0 NaN NaN
01 4 16 25 0 1 2 1 -1 0 +1 1 1 2 00.6854 00.3039 00.9308 1 0 0
01 4 17 27 1 0 0 0 +0 0 +0 2 NaN NaN 00.6771 00.0000 00.0000 1 NaN NaN
01 4 18 48 0 1 2 4 -1 1 +1 2 NaN NaN 00.4022 00.0000 00.0000 0 NaN NaN
01 4 19 42 0 1 2 1 -1 1 +1 1 2 2 00.8277 00.2481 00.3330 1 1 0
01 4 20 19 0 1 1 4 +1 0 +1 2 NaN NaN 00.4252 00.0000 00.0000 0 NaN NaN
01 4 21 30 1 0 0 0 +0 0 +0 2 NaN NaN 00.4328 00.0000 00.0000 1 NaN NaN
01 4 22 11 0 1 2 3 -1 0 +1 2 NaN NaN 00.5530 00.0000 00.0000 0 NaN NaN
01 4 23 14 1 0 0 0 +0 0 +0 2 NaN NaN 00.7795 00.0000 00.0000 1 NaN NaN
01 4 24 7 0 1 2 1 -1 1 +1 2 NaN NaN 00.3562 00.0000 00.0000 0 NaN NaN
01 4 25 1 0 1 1 4 -1 0 -1 2 NaN NaN 00.5913 00.0000 00.0000 0 NaN NaN
01 4 26 36 0 1 1 4 -1 1 -1 1 1 2 00.7206 00.6737 00.4849 1 1 0
01 4 27 42 1 0 0 0 +0 0 +0 2 NaN NaN 00.8751 00.0000 00.0000 1 NaN NaN
01 4 28 19 1 0 0 0 +0 0 +0 2 NaN NaN 01.5043 00.0000 00.0000 1 NaN NaN
01 4 29 20 0 1 2 3 -1 0 -1 2 NaN NaN 00.6358 00.0000 00.0000 0 NaN NaN
01 4 30 23 0 1 1 3 +1 0 -1 2 NaN NaN 00.4597 00.0000 00.0000 0 NaN NaN
01 4 31 6 0 1 1 1 +1 0 +1 2 NaN NaN 00.7064 00.0000 00.0000 0 NaN NaN
01 4 32 4 0 1 1 1 -1 0 +1 2 NaN NaN 00.6869 00.0000 00.0000 0 NaN NaN
01 4 33 21 0 1 2 3 +1 1 +1 2 NaN NaN 01.3564 00.0000 00.0000 0 NaN NaN
01 4 34 48 0 1 1 4 +1 0 -1 2 NaN NaN 00.7020 00.0000 00.0000 0 NaN NaN
01 4 35 32 0 1 1 1 +1 1 -1 1 1 2 00.8912 00.3882 00.1325 1 1 1
01 4 36 12 0 1 1 1 -1 0 -1 2 NaN NaN 00.5214 00.0000 00.0000 0 NaN NaN
01 4 37 5 0 1 2 1 +1 0 +1 2 NaN NaN 01.0060 00.0000 00.0000 0 NaN NaN
01 4 38 1 1 0 0 0 +0 0 +0 2 NaN NaN 07.4065 00.0000 00.0000 1 NaN NaN
01 4 39 10 0 1 2 3 +1 0 -1 2 NaN NaN 04.0985 00.0000 00.0000 0 NaN NaN
01 4 40 18 0 1 2 1 -1 1 -1 1 2 2 01.4096 00.7737 00.4195 1 1 0
01 4 41 5 0 1 1 1 +1 1 -1 1 2 2 00.8777 00.2480 00.2848 1 0 1
01 4 42 3 0 1 2 4 -1 0 -1 2 NaN NaN 00.5071 00.0000 00.0000 0 NaN NaN
01 4 43 28 0 1 1 3 -1 0 +1 2 NaN NaN 01.5679 00.0000 00.0000 0 NaN NaN
01 4 44 47 0 1 1 4 -1 0 +1 2 NaN NaN 00.7765 00.0000 00.0000 0 NaN NaN
01 4 45 2 0 1 1 1 -1 1 -1 2 NaN NaN 03.6019 00.0000 00.0000 0 NaN NaN
01 4 46 13 0 1 2 4 -1 1 -1 2 NaN NaN 03.7173 00.0000 00.0000 0 NaN NaN
01 4 47 46 0 1 2 1 +1 0 -1 1 2 2 02.5633 00.3271 00.6163 1 1 1
01 4 48 6 0 1 2 1 +1 1 -1 1 2 1 00.7767 00.2313 00.3648 1 1 0
01 4 49 9 0 1 1 1 +1 0 +1 2 NaN NaN 00.6157 00.0000 00.0000 0 NaN NaN
01 4 50 4 1 0 0 0 +0 0 +0 1 2 2 01.9756 00.3081 00.4704 0 0 0
01 4 51 38 0 1 2 1 -1 0 -1 2 NaN NaN 00.5571 00.0000 00.0000 0 NaN NaN
01 4 52 17 0 1 2 4 +1 1 -1 1 1 2 00.6244 00.2139 00.3320 1 0 1
01 4 53 3 1 0 0 0 +0 0 +0 2 NaN NaN 00.2164 00.0000 00.0000 1 NaN NaN
01 4 54 13 0 1 2 1 -1 0 -1 2 NaN NaN 00.7457 00.0000 00.0000 0 NaN NaN
01 4 55 38 0 1 1 1 -1 1 +1 2 NaN NaN 00.9166 00.0000 00.0000 0 NaN NaN
01 4 56 45 0 1 1 3 +1 0 +1 2 NaN NaN 00.4565 00.0000 00.0000 0 NaN NaN
01 4 57 21 0 1 2 4 +1 0 -1 2 NaN NaN 00.3513 00.0000 00.0000 0 NaN NaN
01 4 58 43 0 1 2 1 +1 1 -1 1 2 1 00.6028 00.2730 00.3411 1 1 0
01 4 59 32 1 0 0 0 +0 0 +0 2 NaN NaN 00.4975 00.0000 00.0000 1 NaN NaN
01 4 60 25 0 1 1 4 +1 1 -1 2 NaN NaN 00.6308 00.0000 00.0000 0 NaN NaN
01 4 61 29 0 1 2 4 -1 0 +1 2 NaN NaN 00.4386 00.0000 00.0000 0 NaN NaN
01 4 62 39 0 1 1 1 +1 0 -1 2 NaN NaN 00.4149 00.0000 00.0000 0 NaN NaN
01 4 63 44 0 1 2 4 +1 0 +1 2 NaN NaN 00.5677 00.0000 00.0000 0 NaN NaN
01 4 64 22 0 1 1 1 -1 0 +1 2 NaN NaN 00.6183 00.0000 00.0000 0 NaN NaN
01 4 65 30 1 0 0 0 +0 0 +0 2 NaN NaN 00.8102 00.0000 00.0000 1 NaN NaN
01 4 66 29 0 1 1 1 -1 1 -1 1 2 1 00.9616 00.2164 00.2546 1 0 1
01 4 67 26 0 1 1 3 -1 0 -1 2 NaN NaN 00.4137 00.0000 00.0000 0 NaN NaN
01 4 68 17 1 0 0 0 +0 0 +0 2 NaN NaN 00.6625 00.0000 00.0000 1 NaN NaN
01 4 69 40 0 1 2 1 -1 0 +1 2 NaN NaN 00.5643 00.0000 00.0000 0 NaN NaN
01 4 70 16 0 1 1 3 -1 1 +1 1 2 1 00.7901 00.1965 00.2836 1 0 1
01 4 71 46 0 1 2 3 -1 1 -1 2 NaN NaN 00.5532 00.0000 00.0000 0 NaN NaN
01 4 72 15 1 0 0 0 +0 0 +0 2 NaN NaN 00.4918 00.0000 00.0000 1 NaN NaN
01 4 73 35 0 1 2 1 +1 0 -1 2 NaN NaN 00.4485 00.0000 00.0000 0 NaN NaN
01 4 74 12 0 1 2 4 +1 1 +1 2 NaN NaN 00.4560 00.0000 00.0000 0 NaN NaN
01 4 75 35 1 0 0 0 +0 0 +0 1 2 2 00.3029 00.6254 00.1822 0 0 0
01 4 76 27 0 1 2 1 -1 1 -1 2 NaN NaN 00.8728 00.0000 00.0000 0 NaN NaN
01 4 77 9 0 1 2 1 +1 1 +1 2 NaN NaN 01.1341 00.0000 00.0000 0 NaN NaN
01 4 78 28 0 1 1 1 +1 1 +1 1 2 2 00.6644 00.7156 00.2530 1 0 1
01 4 79 31 1 0 0 0 +0 0 +0 2 NaN NaN 00.4768 00.0000 00.0000 1 NaN NaN
01 4 80 11 0 1 1 1 +1 1 +1 2 NaN NaN 01.2668 00.0000 00.0000 0 NaN NaN
01 5 01 24 0 1 1 3 -1 1 -1 2 NaN NaN 00.9066 00.0000 00.0000 0 NaN NaN
01 5 02 18 0 1 1 1 +1 0 -1 2 NaN NaN 00.4627 00.0000 00.0000 0 NaN NaN
01 5 03 24 1 0 0 0 +0 0 +0 2 NaN NaN 00.4847 00.0000 00.0000 1 NaN NaN
01 5 04 47 0 1 1 4 -1 0 +1 2 NaN NaN 00.5700 00.0000 00.0000 0 NaN NaN
01 5 05 17 1 0 0 0 +0 0 +0 2 NaN NaN 00.3967 00.0000 00.0000 1 NaN NaN
01 5 06 42 0 1 2 1 -1 1 +1 1 2 1 00.8222 00.4022 00.1779 1 1 1
01 5 07 22 0 1 1 1 -1 0 +1 2 NaN NaN 00.4844 00.0000 00.0000 0 NaN NaN
01 5 08 38 0 1 2 1 -1 0 -1 2 NaN NaN 00.4265 00.0000 00.0000 0 NaN NaN
01 5 09 5 0 1 2 1 +1 0 +1 2 NaN NaN 00.5307 00.0000 00.0000 0 NaN NaN
01 5 10 9 0 1 1 1 +1 0 +1 2 NaN NaN 00.4707 00.0000 00.0000 0 NaN NaN
01 5 11 35 0 1 2 1 +1 0 -1 1 2 2 00.7334 00.5260 00.2150 1 1 1
01 5 12 35 1 0 0 0 +0 0 +0 2 NaN NaN 00.2156 00.0000 00.0000 1 NaN NaN
01 5 13 25 0 1 2 1 -1 0 +1 1 1 2 00.6488 00.2368 00.1624 1 0 0
01 5 14 3 1 0 0 0 +0 0 +0 2 NaN NaN 00.9490 00.0000 00.0000 1 NaN NaN
01 5 15 39 0 1 1 4 +1 1 +1 2 NaN NaN 01.3675 00.0000 00.0000 0 NaN NaN
01 5 16 32 0 1 1 1 +1 1 -1 1 2 2 00.6804 00.2351 00.3368 1 0 1
01 5 17 20 0 1 1 1 -1 1 +1 2 NaN NaN 00.8765 00.0000 00.0000 0 NaN NaN
01 5 18 16 0 1 1 3 -1 1 +1 1 2 2 01.2977 00.5065 00.2762 1 0 0
01 5 19 11 0 1 2 3 -1 0 +1 2 NaN NaN 00.7707 00.0000 00.0000 0 NaN NaN
01 5 20 10 0 1 1 4 -1 1 +1 1 2 2 00.7009 00.2548 00.4026 1 0 0
01 5 21 39 0 1 1 1 +1 0 -1 2 NaN NaN 00.6691 00.0000 00.0000 0 NaN NaN
01 5 22 46 0 1 2 1 +1 0 -1 2 NaN NaN 00.9549 00.0000 00.0000 0 NaN NaN
01 5 23 2 0 1 1 1 -1 1 -1 1 2 2 00.6846 00.1594 00.3276 1 0 0
01 5 24 27 0 1 2 1 -1 1 -1 1 2 2 00.7719 00.4993 00.3015 1 1 0
01 5 25 6 0 1 2 1 +1 1 -1 1 2 1 00.8912 00.2123 00.2838 1 1 0
01 5 26 8 0 1 1 1 -1 0 -1 2 NaN NaN 00.4256 00.0000 00.0000 0 NaN NaN
01 5 27 32 1 0 0 0 +0 0 +0 2 NaN NaN 00.4663 00.0000 00.0000 1 NaN NaN
01 5 28 31 0 1 2 3 +1 1 -1 1 2 2 00.7771 00.7116 00.3130 1 1 1
01 5 29 25 0 1 1 4 +1 1 -1 2 NaN NaN 01.7180 00.0000 00.0000 0 NaN NaN
01 5 30 42 1 0 0 0 +0 0 +0 2 NaN NaN 00.6321 00.0000 00.0000 1 NaN NaN
01 5 31 30 1 0 0 0 +0 0 +0 2 NaN NaN 01.8801 00.0000 00.0000 1 NaN NaN
01 5 32 5 0 1 1 1 +1 1 -1 1 2 2 01.7954 00.2633 00.2034 1 0 1
01 5 33 40 0 1 1 3 +1 1 -1 1 2 1 00.6214 00.1468 00.3480 1 0 0
01 5 34 46 0 1 2 3 -1 1 -1 2 NaN NaN 00.6308 00.0000 00.0000 0 NaN NaN
01 5 35 28 0 1 1 1 +1 1 +1 1 2 2 00.6459 00.2340 00.3194 1 0 1
01 5 36 29 0 1 1 1 -1 1 -1 2 NaN NaN 00.6045 00.0000 00.0000 0 NaN NaN
01 5 37 43 0 1 2 1 +1 1 -1 1 2 1 00.6057 00.2757 00.2474 1 1 0
01 5 38 12 0 1 1 1 -1 0 -1 2 NaN NaN 00.5189 00.0000 00.0000 0 NaN NaN
01 5 39 23 0 1 1 3 +1 0 -1 2 NaN NaN 00.7471 00.0000 00.0000 0 NaN NaN
01 5 40 13 0 1 2 4 -1 1 -1 2 NaN NaN 01.0299 00.0000 00.0000 0 NaN NaN
01 5 41 3 0 1 2 4 -1 0 -1 2 NaN NaN 01.0124 00.0000 00.0000 0 NaN NaN
01 5 42 8 0 1 2 1 +1 1 +1 1 2 2 00.7394 01.5239 01.0438 1 1 1
01 5 43 21 0 1 2 3 +1 1 +1 2 NaN NaN 01.5379 00.0000 00.0000 0 NaN NaN
01 5 44 19 0 1 1 4 +1 0 +1 2 NaN NaN 00.7638 00.0000 00.0000 0 NaN NaN
01 5 45 7 0 1 2 1 -1 1 +1 1 1 2 01.2221 00.1945 00.3934 1 0 0
01 5 46 12 0 1 2 4 +1 1 +1 2 NaN NaN 00.5308 00.0000 00.0000 0 NaN NaN
01 5 47 2 0 1 2 3 +1 0 +1 2 NaN NaN 00.7589 00.0000 00.0000 0 NaN NaN
01 5 48 1 1 0 0 0 +0 0 +0 2 NaN NaN 00.6572 00.0000 00.0000 1 NaN NaN
01 5 49 26 0 1 1 3 -1 0 -1 2 NaN NaN 00.9116 00.0000 00.0000 0 NaN NaN
01 5 50 11 0 1 1 1 +1 1 +1 2 NaN NaN 00.7714 00.0000 00.0000 0 NaN NaN
01 5 51 6 0 1 1 1 +1 0 +1 2 NaN NaN 00.4616 00.0000 00.0000 0 NaN NaN
01 5 52 4 1 0 0 0 +0 0 +0 1 1 2 01.0437 00.3910 00.1820 0 0 0
01 5 53 44 0 1 2 4 +1 0 +1 2 NaN NaN 00.6322 00.0000 00.0000 0 NaN NaN
01 5 54 27 1 0 0 0 +0 0 +0 2 NaN NaN 00.9198 00.0000 00.0000 1 NaN NaN
01 5 55 4 0 1 1 1 -1 0 +1 2 NaN NaN 00.7318 00.0000 00.0000 0 NaN NaN
01 5 56 48 0 1 1 4 +1 0 -1 2 NaN NaN 00.5193 00.0000 00.0000 0 NaN NaN
01 5 57 9 0 1 2 1 +1 1 +1 1 1 2 00.7640 00.2192 00.1295 1 0 1
01 5 58 10 0 1 2 3 +1 0 -1 2 NaN NaN 00.5342 00.0000 00.0000 0 NaN NaN
01 5 59 31 1 0 0 0 +0 0 +0 2 NaN NaN 00.6015 00.0000 00.0000 1 NaN NaN
01 5 60 17 0 1 2 4 +1 1 -1 1 1 1 00.8580 00.6777 00.4884 1 0 0
01 5 61 29 0 1 2 4 -1 0 +1 2 NaN NaN 00.5424 00.0000 00.0000 0 NaN NaN
01 5 62 1 0 1 1 4 -1 0 -1 2 NaN NaN 00.5776 00.0000 00.0000 0 NaN NaN
01 5 63 37 0 1 1 3 +1 1 +1 1 2 2 00.8355 00.2079 00.2941 1 0 1
01 5 64 18 0 1 2 1 -1 1 -1 2 NaN NaN 00.6913 00.0000 00.0000 0 NaN NaN
01 5 65 40 0 1 2 1 -1 0 +1 2 NaN NaN 00.6403 00.0000 00.0000 0 NaN NaN
01 5 66 36 0 1 1 4 -1 1 -1 1 1 1 00.7040 00.3205 00.1786 1 1 1
01 5 67 28 0 1 1 3 -1 0 +1 1 2 2 01.4125 00.1204 00.3069 1 0 0
01 5 68 20 0 1 2 3 -1 0 -1 2 NaN NaN 00.6399 00.0000 00.0000 0 NaN NaN
01 5 69 14 1 0 0 0 +0 0 +0 2 NaN NaN 00.8156 00.0000 00.0000 1 NaN NaN
01 5 70 21 0 1 2 4 +1 0 -1 2 NaN NaN 00.9518 00.0000 00.0000 0 NaN NaN
01 5 71 38 0 1 1 1 -1 1 +1 1 2 2 00.9703 00.2411 00.2305 1 0 0
01 5 72 41 0 1 2 3 -1 1 +1 1 1 2 00.7911 00.3094 00.3437 1 0 0
01 5 73 45 0 1 1 3 +1 0 +1 2 NaN NaN 00.6267 00.0000 00.0000 0 NaN NaN
01 5 74 15 1 0 0 0 +0 0 +0 1 2 2 00.3538 00.4984 00.3166 0 0 0
01 5 75 13 0 1 2 1 -1 0 -1 2 NaN NaN 00.6177 00.0000 00.0000 0 NaN NaN
01 5 76 19 1 0 0 0 +0 0 +0 1 2 2 01.3861 00.2226 00.2443 0 0 0
01 5 77 48 0 1 2 4 -1 1 +1 2 NaN NaN 00.6920 00.0000 00.0000 0 NaN NaN
01 5 78 44 1 0 0 0 +0 0 +0 1 2 2 01.1211 00.2736 00.2448 0 0 0
01 5 79 7 0 1 2 1 +1 0 +1 2 NaN NaN 00.6616 00.0000 00.0000 0 NaN NaN
01 5 80 30 1 0 0 0 +0 0 +0 2 NaN NaN 01.7634 00.0000 00.0000 1 NaN NaN
01 6 01 5 0 1 1 1 +1 1 -1 1 2 2 01.0606 00.3271 00.1845 1 0 1
01 6 02 20 0 1 2 3 -1 0 -1 2 NaN NaN 00.7624 00.0000 00.0000 0 NaN NaN
01 6 03 3 0 1 2 4 -1 0 -1 2 NaN NaN 01.0440 00.0000 00.0000 0 NaN NaN
01 6 04 12 0 1 2 4 +1 1 +1 1 2 2 00.6096 00.2152 00.3972 1 1 1
01 6 05 48 0 1 2 4 -1 1 +1 1 2 2 00.7581 00.2458 00.2668 1 1 0
01 6 06 38 0 1 1 1 -1 1 +1 2 NaN NaN 00.3298 00.0000 00.0000 0 NaN NaN
01 6 07 7 0 1 2 1 -1 1 +1 1 2 2 00.6942 00.2482 00.4451 1 1 0
01 6 08 22 0 1 1 1 -1 0 +1 2 NaN NaN 00.0039 00.0000 00.0000 0 NaN NaN
01 6 09 47 0 1 1 4 -1 0 +1 2 NaN NaN 00.6063 00.0000 00.0000 0 NaN NaN
01 6 10 19 1 0 0 0 +0 0 +0 1 2 1 00.7676 00.3186 00.3846 0 0 0
01 6 11 40 0 1 1 3 +1 1 -1 1 1 2 00.6827 00.2695 00.0976 1 1 1
01 6 12 28 0 1 1 3 -1 0 +1 2 NaN NaN 00.8238 00.0000 00.0000 0 NaN NaN
01 6 13 6 0 1 1 1 +1 0 +1 2 NaN NaN 00.5432 00.0000 00.0000 0 NaN NaN
01 6 14 48 0 1 1 4 +1 0 -1 2 NaN NaN 00.5143 00.0000 00.0000 0 NaN NaN
01 6 15 14 1 0 0 0 +0 0 +0 2 NaN NaN 00.7271 00.0000 00.0000 1 NaN NaN
01 6 16 43 0 1 2 1 +1 1 -1 1 2 1 00.5786 00.2656 00.3977 1 1 0
01 6 17 32 1 0 0 0 +0 0 +0 2 NaN NaN 00.6306 00.0000 00.0000 1 NaN NaN
01 6 18 30 1 0 0 0 +0 0 +0 2 NaN NaN 20.0537 00.0000 00.0000 1 NaN NaN
01 6 19 44 1 0 0 0 +0 0 +0 2 NaN NaN 00.8240 00.0000 00.0000 1 NaN NaN
01 6 20 45 0 1 1 3 +1 0 +1 1 2 2 00.4795 00.2505 00.2714 1 0 1
01 6 21 5 0 1 2 1 +1 0 +1 2 NaN NaN 00.0937 00.0000 00.0000 0 NaN NaN
01 6 22 11 0 1 2 3 -1 0 +1 2 NaN NaN 00.3872 00.0000 00.0000 0 NaN NaN
01 6 23 41 0 1 2 3 -1 1 +1 1 1 2 00.6209 00.2903 00.1175 1 0 0
01 6 24 23 0 1 1 3 +1 0 -1 2 NaN NaN 01.2905 00.0000 00.0000 0 NaN NaN
01 6 25 13 0 1 2 1 -1 0 -1 2 NaN NaN 00.6062 00.0000 00.0000 0 NaN NaN
01 6 26 46 0 1 2 3 -1 1 -1 2 NaN NaN 00.8469 00.0000 00.0000 0 NaN NaN
01 6 27 25 0 1 2 1 -1 0 +1 1 1 2 00.6607 00.1681 00.1284 1 0 0
01 6 28 26 0 1 1 3 -1 0 -1 2 NaN NaN 00.6605 00.0000 00.0000 0 NaN NaN
01 6 29 28 0 1 1 1 +1 1 +1 1 2 2 00.9621 00.2968 00.1877 1 0 1
01 6 30 9 0 1 1 1 +1 0 +1 2 NaN NaN 00.4783 00.0000 00.0000 0 NaN NaN
01 6 31 30 1 0 0 0 +0 0 +0 2 NaN NaN 00.4197 00.0000 00.0000 1 NaN NaN
01 6 32 21 0 1 2 4 +1 0 -1 2 NaN NaN 00.4598 00.0000 00.0000 0 NaN NaN
01 6 33 8 0 1 1 1 -1 0 -1 2 NaN NaN 00.4820 00.0000 00.0000 0 NaN NaN
01 6 34 11 0 1 1 1 +1 1 +1 1 2 2 00.8398 00.1629 00.2687 1 0 1
01 6 35 3 1 0 0 0 +0 0 +0 2 NaN NaN 01.9317 00.0000 00.0000 1 NaN NaN
01 6 36 6 0 1 2 1 +1 1 -1 2 NaN NaN 02.9164 00.0000 00.0000 0 NaN NaN
01 6 37 35 1 0 0 0 +0 0 +0 2 NaN NaN 04.4518 00.0000 00.0000 1 NaN NaN
01 6 38 16 0 1 1 3 -1 1 +1 1 2 2 00.7068 00.1328 00.3185 1 0 0
01 6 39 46 0 1 2 1 +1 0 -1 2 NaN NaN 00.1868 00.0000 00.0000 0 NaN NaN
01 6 40 7 0 1 2 1 +1 0 +1 2 NaN NaN 00.6848 00.0000 00.0000 0 NaN NaN
01 6 41 13 0 1 2 4 -1 1 -1 1 2 2 00.8264 00.3108 00.4570 1 1 0
01 6 42 44 0 1 2 4 +1 0 +1 2 NaN NaN 00.5124 00.0000 00.0000 0 NaN NaN
01 6 43 39 0 1 1 1 +1 0 -1 2 NaN NaN 00.7724 00.0000 00.0000 0 NaN NaN
01 6 44 24 0 1 1 3 -1 1 -1 2 NaN NaN 00.9585 00.0000 00.0000 0 NaN NaN
01 6 45 36 0 1 1 4 -1 1 -1 1 1 1 00.7043 00.3224 00.2600 1 1 1
01 6 46 2 0 1 1 1 -1 1 -1 2 NaN NaN 00.7074 00.0000 00.0000 0 NaN NaN
01 6 47 2 0 1 2 3 +1 0 +1 2 NaN NaN 00.8799 00.0000 00.0000 0 NaN NaN
01 6 48 10 0 1 2 3 +1 0 -1 2 NaN NaN 00.4684 00.0000 00.0000 0 NaN NaN
01 6 49 24 1 0 0 0 +0 0 +0 2 NaN NaN 00.7945 00.0000 00.0000 1 NaN NaN
01 6 50 31 0 1 2 3 +1 1 -1 1 2 1 06.1092 00.6833 00.9420 1 1 0
01 6 51 39 0 1 1 4 +1 1 +1 1 2 2 01.2477 00.1545 00.4356 1 0 1
01 6 52 17 0 1 2 4 +1 1 -1 1 2 2 00.6191 00.3847 00.1759 1 1 1
01 6 53 8 0 1 2 1 +1 1 +1 1 2 1 01.7305 01.2092 00.4540 1 1 0
01 6 54 38 0 1 2 1 -1 0 -1 2 NaN NaN 00.9251 00.0000 00.0000 0 NaN NaN
01 6 55 9 0 1 2 1 +1 1 +1 1 2 2 00.7361 00.2406 00.2136 1 1 1
01 6 56 12 0 1 1 1 -1 0 -1 2 NaN NaN 00.4861 00.0000 00.0000 0 NaN NaN
01 6 57 15 1 0 0 0 +0 0 +0 2 NaN NaN 00.5234 00.0000 00.0000 1 NaN NaN
01 6 58 19 0 1 1 4 +1 0 +1 2 NaN NaN 00.6241 00.0000 00.0000 0 NaN NaN
01 6 59 4 0 1 1 1 -1 0 +1 2 NaN NaN 00.5118 00.0000 00.0000 0 NaN NaN
01 6 60 1 1 0 0 0 +0 0 +0 2 NaN NaN 01.3639 00.0000 00.0000 1 NaN NaN
01 6 61 20 0 1 1 1 -1 1 +1 2 NaN NaN 01.6523 00.0000 00.0000 0 NaN NaN
01 6 62 31 1 0 0 0 +0 0 +0 2 NaN NaN 00.5916 00.0000 00.0000 1 NaN NaN
01 6 63 32 0 1 1 1 +1 1 -1 1 2 1 01.2648 00.7150 01.5163 1 0 0
01 6 64 37 0 1 1 3 +1 1 +1 1 2 2 02.1349 01.4848 00.2219 1 0 1
01 6 65 29 0 1 1 1 -1 1 -1 2 NaN NaN 00.6705 00.0000 00.0000 0 NaN NaN
01 6 66 42 0 1 2 1 -1 1 +1 2 NaN NaN 00.9408 00.0000 00.0000 0 NaN NaN
01 6 67 4 1 0 0 0 +0 0 +0 1 1 2 00.7995 00.2691 00.4015 0 0 0
01 6 68 27 1 0 0 0 +0 0 +0 2 NaN NaN 01.7861 00.0000 00.0000 1 NaN NaN
01 6 69 35 0 1 2 1 +1 0 -1 1 2 1 01.5137 00.4576 00.5498 1 1 0
01 6 70 40 0 1 2 1 -1 0 +1 2 NaN NaN 00.6165 00.0000 00.0000 0 NaN NaN
01 6 71 1 0 1 1 4 -1 0 -1 2 NaN NaN 01.4649 00.0000 00.0000 0 NaN NaN
01 6 72 10 0 1 1 4 -1 1 +1 1 2 1 00.8371 00.2255 01.5430 1 0 1
01 6 73 18 0 1 2 1 -1 1 -1 2 NaN NaN 00.7523 00.0000 00.0000 0 NaN NaN
01 6 74 17 1 0 0 0 +0 0 +0 2 NaN NaN 00.3792 00.0000 00.0000 1 NaN NaN
01 6 75 27 0 1 2 1 -1 1 -1 1 2 2 00.7095 00.2955 00.2502 1 1 0
01 6 76 29 0 1 2 4 -1 0 +1 2 NaN NaN 00.4900 00.0000 00.0000 0 NaN NaN
01 6 77 42 1 0 0 0 +0 0 +0 2 NaN NaN 00.5601 00.0000 00.0000 1 NaN NaN
01 6 78 18 0 1 1 1 +1 0 -1 2 NaN NaN 00.5147 00.0000 00.0000 0 NaN NaN
01 6 79 21 0 1 2 3 +1 1 +1 2 NaN NaN 00.7428 00.0000 00.0000 0 NaN NaN
01 6 80 25 0 1 1 4 +1 1 -1 2 NaN NaN 00.9142 00.0000 00.0000 0 NaN NaN
