sub block trial obj foil exp maze DP turn attend pos resp1 resp2 resp3 RT1 RT2 RT3 correct1 correct2 correct3
Subject 07 -- attend vehicles
07 1 01 23 0 1 2 1 +1 1 -1 2 NaN NaN 02.1381 00.0000 00.0000 0 NaN NaN
07 1 02 36 0 1 2 1 -1 0 +1 1 1 1 02.4750 02.4026 01.6135 1 0 1
07 1 03 40 1 0 0 0 +0 0 +0 2 NaN NaN 01.0921 00.0000 00.0000 1 NaN NaN
07 1 04 10 1 0 0 0 +0 0 +0 2 NaN NaN 00.9444 00.0000 00.0000 1 NaN NaN
07 1 05 43 0 1 1 4 -1 0 +1 2 NaN NaN 00.9627 00.0000 00.0000 0 NaN NaN
07 1 06 5 0 1 2 1 +1 1 -1 1 1 2 01.4925 01.1735 03.1235 1 0 1
07 1 07 6 0 1 1 1 -1 1 -1 2 NaN NaN 01.7077 00.0000 00.0000 0 NaN NaN
07 1 08 15 0 1 2 3 -1 0 +1 2 NaN NaN 00.8309 00.0000 00.0000 0 NaN NaN
07 1 09 16 0 1 1 3 -1 0 -1 2 NaN NaN 01.6543 00.0000 00.0000 0 NaN NaN
07 1 10 12 1 0 0 0 +0 0 +0 2 NaN NaN 01.3068 00.0000 00.0000 1 NaN NaN
07 1 11 3 0 1 2 4 -1 1 -1 1 1 2 01.1979 01.1950 00.8560 1 0 0
07 1 12 19 0 1 1 4 +1 1 +1 2 NaN NaN 01.2139 00.0000 00.0000 0 NaN NaN
07 1 13 33 0 1 2 4 +1 1 -1 2 NaN NaN 01.3811 00.0000 00.0000 0 NaN NaN
07 1 14 19 0 1 1 1 -1 0 -1 2 NaN NaN 00.6288 00.0000 00.0000 0 NaN NaN
07 1 15 46 0 1 1 4 -1 1 -1 2 NaN NaN 00.5320 00.0000 00.0000 0 NaN NaN
07 1 16 23 0 1 1 1 +1 0 +1 1 2 2 01.3992 01.2757 00.9819 1 0 1
07 1 17 20 0 1 2 3 +1 0 -1 2 NaN NaN 01.1425 00.0000 00.0000 0 NaN NaN
07 1 18 9 0 1 1 1 -1 1 +1 2 NaN NaN 00.9766 00.0000 00.0000 0 NaN NaN
07 1 19 39 0 1 2 4 -1 0 +1 2 NaN NaN 00.5616 00.0000 00.0000 0 NaN NaN
07 1 20 35 1 0 0 0 +0 0 +0 2 NaN NaN 00.6122 00.0000 00.0000 1 NaN NaN
07 1 21 38 0 1 2 3 -1 1 -1 1 1 1 01.4280 00.6633 00.5867 1 0 1
07 1 22 12 0 1 2 1 -1 0 -1 2 NaN NaN 00.5718 00.0000 00.0000 0 NaN NaN
07 1 23 30 0 1 1 1 +1 0 -1 2 NaN NaN 00.5097 00.0000 00.0000 0 NaN NaN
07 1 24 8 0 1 2 1 +1 1 +1 2 NaN NaN 02.4983 00.0000 00.0000 0 NaN NaN
07 1 25 26 0 1 1 3 -1 1 -1 2 NaN NaN 00.7711 00.0000 00.0000 0 NaN NaN
07 1 26 33 0 1 1 1 -1 0 +1 2 NaN NaN 00.5407 00.0000 00.0000 0 NaN NaN
07 1 27 4 0 1 1 3 -1 1 +1 2 NaN NaN 00.7679 00.0000 00.0000 0 NaN NaN
07 1 28 20 0 1 1 1 +1 1 -1 2 NaN NaN 00.6494 00.0000 00.0000 0 NaN NaN
07 1 29 32 0 1 1 1 +1 1 -1 2 NaN NaN 01.2724 00.0000 00.0000 0 NaN NaN
07 1 30 15 1 0 0 0 +0 0 +0 2 NaN NaN 01.2930 00.0000 00.0000 1 NaN NaN
07 1 31 29 0 1 1 3 +1 1 +1 2 NaN NaN 00.7529 00.0000 00.0000 0 NaN NaN
07 1 32 27 0 1 1 1 +1 1 +1 1 1 2 01.2591 03.5579 02.2725 1 1 1
07 1 33 34 1 0 0 0 +0 0 +0 2 NaN NaN 00.8437 00.0000 00.0000 1 NaN NaN
07 1 34 7 1 0 0 0 +0 0 +0 2 NaN NaN 01.2664 00.0000 00.0000 1 NaN NaN
07 1 35 16 0 1 1 3 +1 1 -1 2 NaN NaN 00.7109 00.0000 00.0000 0 NaN NaN
07 1 36 26 0 1 2 1 +1 0 -1 1 2 1 01.1552 00.5944 00.3444 1 1 0
07 1 37 10 1 0 0 0 +0 0 +0 2 NaN NaN 00.5001 00.0000 00.0000 1 NaN NaN
07 1 38 35 0 1 2 1 -1 1 -1 2 NaN NaN 00.7929 00.0000 00.0000 0 NaN NaN
07 1 39 34 0 1 2 1 -1 0 -1 2 NaN NaN 00.5616 00.0000 00.0000 0 NaN NaN
07 1 40 42 0 1 2 4 -1 0 -1 2 NaN NaN 00.8683 00.0000 00.0000 0 NaN NaN
07 1 41 45 0 1 2 1 -1 1 +1 2 NaN NaN 00.7455 00.0000 00.0000 0 NaN NaN
07 1 42 45 0 1 2 3 -1 0 -1 2 NaN NaN 00.9798 00.0000 00.0000 0 NaN NaN
07 1 43 31 0 1 2 4 +1 0 -1 2 NaN NaN 01.4449 00.0000 00.0000 0 NaN NaN
07 1 44 43 1 0 0 0 +0 0 +0 2 NaN NaN 01.2977 00.0000 00.0000 1 NaN NaN
07 1 45 21 0 1 1 4 -1 1 +1 2 NaN NaN 00.8849 00.0000 00.0000 0 NaN NaN
07 1 46 31 0 1 2 3 +1 1 -1 2 NaN NaN 00.9054 00.0000 00.0000 0 NaN NaN
07 1 47 25 0 1 1 1 -1 0 +1 1 1 2 01.5339 00.7330 01.0216 1 1 0
07 1 48 28 0 1 1 1 +1 1 +1 2 NaN NaN 02.0287 00.0000 00.0000 0 NaN NaN
07 1 49 24 0 1 1 4 -1 0 -1 2 NaN NaN 00.5770 00.0000 00.0000 0 NaN NaN
07 1 50 14 0 1 2 4 +1 0 +1 2 NaN NaN 00.5788 00.0000 00.0000 0 NaN NaN
07 1 51 6 0 1 1 3 +1 0 -1 2 NaN NaN 00.4846 00.0000 00.0000 0 NaN NaN
07 1 52 39 1 0 0 0 +0 0 +0 2 NaN NaN 00.3947 00.0000 00.0000 1 NaN NaN
07 1 53 13 0 1 2 1 +1 1 +1 2 NaN NaN 00.5637 00.0000 00.0000 0 NaN NaN
07 1 54 1 0 1 2 3 +1 0 +1 2 NaN NaN 00.6781 00.0000 00.0000 0 NaN NaN
07 1 55 48 0 1 1 1 -1 1 -1 2 NaN NaN 00.8198 00.0000 00.0000 0 NaN NaN
07 1 56 14 0 1 2 3 -1 1 +1 2 NaN NaN 00.4761 00.0000 00.0000 0 NaN NaN
07 1 57 2 0 1 1 1 -1 0 -1 2 NaN NaN 00.5941 00.0000 00.0000 0 NaN NaN
07 1 58 17 0 1 2 1 +1 0 +1 2 NaN NaN 00.6427 00.0000 00.0000 0 NaN NaN
07 1 59 30 1 0 0 0 +0 0 +0 1 2 1 00.8817 00.5720 00.3869 0 0 0
07 1 60 13 1 0 0 0 +0 0 +0 2 NaN NaN 00.7017 00.0000 00.0000 1 NaN NaN
07 1 61 47 1 0 0 0 +0 0 +0 1 2 1 01.0181 00.3989 00.2854 0 0 0
07 1 62 40 0 1 2 4 -1 1 +1 2 NaN NaN 00.6351 00.0000 00.0000 0 NaN NaN
07 1 63 44 0 1 2 1 -1 0 +1 2 NaN NaN 00.6988 00.0000 00.0000 0 NaN NaN
07 1 64 48 0 1 1 4 +1 0 -1 2 NaN NaN 00.6318 00.0000 00.0000 0 NaN NaN
07 1 65 37 0 1 1 1 +1 0 +1 2 NaN NaN 00.5508 00.0000 00.0000 0 NaN NaN
07 1 66 7 0 1 2 1 -1 1 -1 1 2 1 01.0821 00.5241 00.3576 1 1 1
07 1 67 17 0 1 2 1 -1 1 +1 1 1 2 01.4087 00.8345 00.4949 1 0 0
07 1 68 22 0 1 1 4 +1 1 -1 2 NaN NaN 01.2362 00.0000 00.0000 0 NaN NaN
07 1 69 46 0 1 2 1 +1 0 -1 2 NaN NaN 00.5867 00.0000 00.0000 0 NaN NaN
07 1 70 18 0 1 1 1 -1 1 +1 1 1 2 01.0207 00.4816 01.2605 1 1 0
07 1 71 22 1 0 0 0 +0 0 +0 2 NaN NaN 00.5456 00.0000 00.0000 1 NaN NaN
07 1 72 28 0 1 1 3 +1 0 +1 2 NaN NaN 01.6042 00.0000 00.0000 0 NaN NaN
07 1 73 38 0 1 1 3 -1 0 +1 2 NaN NaN 00.4434 00.0000 00.0000 0 NaN NaN
07 1 74 41 1 0 0 0 +0 0 +0 2 NaN NaN 00.6590 00.0000 00.0000 1 NaN NaN
07 1 75 24 0 1 2 4 +1 1 +1 2 NaN NaN 00.3853 00.0000 00.0000 0 NaN NaN
07 1 76 44 0 1 2 3 +1 1 +1 2 NaN NaN 00.7471 00.0000 00.0000 0 NaN NaN
07 1 77 5 0 1 1 1 +1 0 -1 2 NaN NaN 00.4858 00.0000 00.0000 0 NaN NaN
07 1 78 9 0 1 1 4 +1 0 +1 2 NaN NaN 00.7320 00.0000 00.0000 0 NaN NaN
07 1 79 8 1 0 0 0 +0 0 +0 2 NaN NaN 00.5994 00.0000 00.0000 1 NaN NaN
07 1 80 11 0 1 2 1 +1 0 +1 2 NaN NaN 00.5840 00.0000 00.0000 0 NaN NaN
07 2 01 24 0 1 1 4 -1 0 -1 2 NaN NaN 00.7874 00.0000 00.0000 0 NaN NaN
07 2 02 22 0 1 1 4 +1 1 -1 2 NaN NaN 00.7001 00.0000 00.0000 0 NaN NaN
07 2 03 30 0 1 1 1 +1 0 -1 2 NaN NaN 00.5524 00.0000 00.0000 0 NaN NaN
07 2 04 26 0 1 1 3 -1 1 -1 2 NaN NaN 01.7070 00.0000 00.0000 0 NaN NaN
07 2 05 10 1 0 0 0 +0 0 +0 2 NaN NaN 00.5893 00.0000 00.0000 1 NaN NaN
07 2 06 5 0 1 2 1 +1 1 -1 2 NaN NaN 01.3425 00.0000 00.0000 0 NaN NaN
07 2 07 6 0 1 1 3 +1 0 -1 2 NaN NaN 00.5122 00.0000 00.0000 0 NaN NaN
07 2 08 45 0 1 2 3 -1 0 -1 1 2 2 00.7563 00.6912 00.7747 1 1 0
07 2 09 27 0 1 1 1 +1 1 +1 1 1 2 00.9288 04.0572 00.9267 1 1 1
07 2 10 2 0 1 1 1 -1 0 -1 2 NaN NaN 00.7377 00.0000 00.0000 0 NaN NaN
07 2 11 37 0 1 1 1 +1 0 +1 2 NaN NaN 00.7494 00.0000 00.0000 0 NaN NaN
07 2 12 19 0 1 1 1 -1 0 -1 2 NaN NaN 00.5037 00.0000 00.0000 0 NaN NaN
07 2 13 31 0 1 2 3 +1 1 -1 2 NaN NaN 00.5402 00.0000 00.0000 0 NaN NaN
07 2 14 34 1 0 0 0 +0 0 +0 1 2 1 01.5997 00.2679 00.2239 0 0 0
07 2 15 41 1 0 0 0 +0 0 +0 2 NaN NaN 00.8164 00.0000 00.0000 1 NaN NaN
07 2 16 17 0 1 2 1 -1 1 +1 1 2 1 00.9685 00.3340 00.2073 1 1 1
07 2 17 20 0 1 2 3 +1 0 -1 2 NaN NaN 00.4647 00.0000 00.0000 0 NaN NaN
07 2 18 46 0 1 2 1 +1 0 -1 2 NaN NaN 00.5512 00.0000 00.0000 0 NaN NaN
07 2 19 20 0 1 1 1 +1 1 -1 2 NaN NaN 00.4425 00.0000 00.0000 0 NaN NaN
07 2 20 11 0 1 2 1 +1 0 +1 2 NaN NaN 00.6574 00.0000 00.0000 0 NaN NaN
07 2 21 32 0 1 1 1 +1 1 -1 1 1 2 01.7604 00.3904 00.2775 1 1 1
07 2 22 7 0 1 2 1 -1 1 -1 2 NaN NaN 00.2600 00.0000 00.0000 0 NaN NaN
07 2 23 9 0 1 1 4 +1 0 +1 2 NaN NaN 00.5632 00.0000 00.0000 0 NaN NaN
07 2 24 19 0 1 1 4 +1 1 +1 2 NaN NaN 00.5011 00.0000 00.0000 0 NaN NaN
07 2 25 12 0 1 2 1 -1 0 -1 2 NaN NaN 00.5224 00.0000 00.0000 0 NaN NaN
07 2 26 10 1 0 0 0 +0 0 +0 2 NaN NaN 00.4945 00.0000 00.0000 1 NaN NaN
07 2 27 13 0 1 2 1 +1 1 +1 2 NaN NaN 00.4997 00.0000 00.0000 0 NaN NaN
07 2 28 43 1 0 0 0 +0 0 +0 2 NaN NaN 01.0006 00.0000 00.0000 1 NaN NaN
07 2 29 38 0 1 2 3 -1 1 -1 1 2 2 01.0808 00.8269 00.5032 1 1 0
07 2 30 21 0 1 1 4 -1 1 +1 2 NaN NaN 00.4764 00.0000 00.0000 0 NaN NaN
07 2 31 34 0 1 2 1 -1 0 -1 2 NaN NaN 00.4499 00.0000 00.0000 0 NaN NaN
07 2 32 1 0 1 2 3 +1 0 +1 2 NaN NaN 01.1447 00.0000 00.0000 0 NaN NaN
07 2 33 46 0 1 1 4 -1 1 -1 2 NaN NaN 00.6422 00.0000 00.0000 0 NaN NaN
07 2 34 22 1 0 0 0 +0 0 +0 2 NaN NaN 00.5131 00.0000 00.0000 1 NaN NaN
07 2 35 31 0 1 2 4 +1 0 -1 2 NaN NaN 00.7099 00.0000 00.0000 0 NaN NaN
07 2 36 4 0 1 1 3 -1 1 +1 2 NaN NaN 00.4335 00.0000 00.0000 0 NaN NaN
07 2 37 16 0 1 1 3 +1 1 -1 2 NaN NaN 00.5057 00.0000 00.0000 0 NaN NaN
07 2 38 42 0 1 2 4 -1 0 -1 2 NaN NaN 00.6063 00.0000 00.0000 0 NaN NaN
07 2 39 7 1 0 0 0 +0 0 +0 2 NaN NaN 00.3990 00.0000 00.0000 1 NaN NaN
07 2 40 8 1 0 0 0 +0 0 +0 2 NaN NaN 00.4557 00.0000 00.0000 1 NaN NaN
07 2 41 26 0 1 2 1 +1 0 -1 2 NaN NaN 01.4070 00.0000 00.0000 0 NaN NaN
07 2 42 14 0 1 2 3 -1 1 +1 2 NaN NaN 00.6068 00.0000 00.0000 0 NaN NaN
07 2 43 8 0 1 2 1 +1 1 +1 1 2 2 02.0313 00.5053 00.3390 1 1 1
07 2 44 6 0 1 1 1 -1 1 -1 2 NaN NaN 00.5266 00.0000 00.0000 0 NaN NaN
07 2 45 9 0 1 1 1 -1 1 +1 2 NaN NaN 00.4984 00.0000 00.0000 0 NaN NaN
07 2 46 39 0 1 2 4 -1 0 +1 2 NaN NaN 00.4238 00.0000 00.0000 0 NaN NaN
07 2 47 44 0 1 2 1 -1 0 +1 2 NaN NaN 00.4001 00.0000 00.0000 0 NaN NaN
07 2 48 5 0 1 1 1 +1 0 -1 2 NaN NaN 00.4895 00.0000 00.0000 0 NaN NaN
07 2 49 18 0 1 1 1 -1 1 +1 1 1 1 01.1837 00.2855 00.3529 1 1 1
07 2 50 24 0 1 2 4 +1 1 +1 2 NaN NaN 00.3645 00.0000 00.0000 0 NaN NaN
07 2 51 48 0 1 1 1 -1 1 -1 2 NaN NaN 00.4708 00.0000 00.0000 0 NaN NaN
07 2 52 3 0 1 2 4 -1 1 -1 1 2 2 00.7970 01.1786 01.0004 1 1 0
07 2 53 47 1 0 0 0 +0 0 +0 2 NaN NaN 00.2960 00.0000 00.0000 1 NaN NaN
07 2 54 17 0 1 2 1 +1 0 +1 2 NaN NaN 00.7251 00.0000 00.0000 0 NaN NaN
07 2 55 29 0 1 1 3 +1 1 +1 2 NaN NaN 00.4974 00.0000 00.0000 0 NaN NaN
07 2 56 36 0 1 2 1 -1 0 +1 1 1 2 02.4061 02.4808 00.7119 1 0 0
07 2 57 40 0 1 2 4 -1 1 +1 2 NaN NaN 00.5002 00.0000 00.0000 0 NaN NaN
07 2 58 35 1 0 0 0 +0 0 +0 2 NaN NaN 00.4888 00.0000 00.0000 1 NaN NaN
07 2 59 15 0 1 2 3 -1 0 +1 2 NaN NaN 00.4463 00.0000 00.0000 0 NaN NaN
07 2 60 23 0 1 1 1 +1 0 +1 1 2 2 00.8051 00.4188 00.3048 1 0 1
07 2 61 35 0 1 2 1 -1 1 -1 2 NaN NaN 00.3016 00.0000 00.0000 0 NaN NaN
07 2 62 33 0 1 1 1 -1 0 +1 2 NaN NaN 00.5548 00.0000 00.0000 0 NaN NaN
07 2 63 33 0 1 2 4 +1 1 -1 2 NaN NaN 00.3180 00.0000 00.0000 0 NaN NaN
07 2 64 14 0 1 2 4 +1 0 +1 2 NaN NaN 00.6510 00.0000 00.0000 0 NaN NaN
07 2 65 28 0 1 1 1 +1 1 +1 2 NaN NaN 00.5535 00.0000 00.0000 0 NaN NaN
07 2 66 38 0 1 1 3 -1 0 +1 2 NaN NaN 03.6926 00.0000 00.0000 0 NaN NaN
07 2 67 25 0 1 1 1 -1 0 +1 2 NaN NaN 00.3487 00.0000 00.0000 0 NaN NaN
07 2 68 44 0 1 2 3 +1 1 +1 2 NaN NaN 00.4717 00.0000 00.0000 0 NaN NaN
07 2 69 43 0 1 1 4 -1 0 +1 1 2 2 00.8624 00.3613 00.3133 1 0 0
07 2 70 23 0 1 2 1 +1 1 -1 2 NaN NaN 00.3903 00.0000 00.0000 0 NaN NaN
07 2 71 28 0 1 1 3 +1 0 +1 2 NaN NaN 00.5439 00.0000 00.0000 0 NaN NaN
07 2 72 40 1 0 0 0 +0 0 +0 2 NaN NaN 00.3866 00.0000 00.0000 1 NaN NaN
07 2 73 39 1 0 0 0 +0 0 +0 2 NaN NaN 00.4122 00.0000 00.0000 1 NaN NaN
07 2 74 30 1 0 0 0 +0 0 +0 2 NaN NaN 00.3564 00.0000 00.0000 1 NaN NaN
07 2 75 12 1 0 0 0 +0 0 +0 2 NaN NaN 00.3993 00.0000 00.0000 1 NaN NaN
07 2 76 15 1 0 0 0 +0 0 +0 2 NaN NaN 00.5362 00.0000 00.0000 1 NaN NaN
07 2 77 16 0 1 1 3 -1 0 -1 2 NaN NaN 00.4281 00.0000 00.0000 0 NaN NaN
07 2 78 45 0 1 2 1 -1 1 +1 2 NaN NaN 00.3083 00.0000 00.0000 0 NaN NaN
07 2 79 13 1 0 0 0 +0 0 +0 2 NaN NaN 00.5940 00.0000 00.0000 1 NaN NaN
07 2 80 48 0 1 1 4 +1 0 -1 1 2 2 01.5066 00.4190 00.3369 1 0 1
07 3 01 22 1 0 0 0 +0 0 +0 2 NaN NaN 00.5422 00.0000 00.0000 1 NaN NaN
07 3 02 17 0 1 2 1 -1 1 +1 1 2 2 00.8341 00.4146 00.3323 1 1 0
07 3 03 5 0 1 2 1 +1 1 -1 2 NaN NaN 00.5041 00.0000 00.0000 0 NaN NaN
07 3 04 11 0 1 2 1 +1 0 +1 2 NaN NaN 00.4613 00.0000 00.0000 0 NaN NaN
07 3 05 20 0 1 1 1 +1 1 -1 2 NaN NaN 00.4841 00.0000 00.0000 0 NaN NaN
07 3 06 7 1 0 0 0 +0 0 +0 2 NaN NaN 00.7297 00.0000 00.0000 1 NaN NaN
07 3 07 33 0 1 1 1 -1 0 +1 2 NaN NaN 00.5484 00.0000 00.0000 0 NaN NaN
07 3 08 29 0 1 1 3 +1 1 +1 2 NaN NaN 00.4390 00.0000 00.0000 0 NaN NaN
07 3 09 48 0 1 1 1 -1 1 -1 2 NaN NaN 00.4306 00.0000 00.0000 0 NaN NaN
07 3 10 39 1 0 0 0 +0 0 +0 2 NaN NaN 00.7586 00.0000 00.0000 1 NaN NaN
07 3 11 35 1 0 0 0 +0 0 +0 2 NaN NaN 00.5442 00.0000 00.0000 1 NaN NaN
07 3 12 14 0 1 2 3 -1 1 +1 2 NaN NaN 00.4354 00.0000 00.0000 0 NaN NaN
07 3 13 9 0 1 1 1 -1 1 +1 2 NaN NaN 00.8590 00.0000 00.0000 0 NaN NaN
07 3 14 25 0 1 1 1 -1 0 +1 1 2 2 00.9762 00.3750 00.5509 1 0 0
07 3 15 28 0 1 1 3 +1 0 +1 2 NaN NaN 00.3137 00.0000 00.0000 0 NaN NaN
07 3 16 31 0 1 2 3 +1 1 -1 2 NaN NaN 01.7665 00.0000 00.0000 0 NaN NaN
07 3 17 6 0 1 1 3 +1 0 -1 2 NaN NaN 00.5341 00.0000 00.0000 0 NaN NaN
07 3 18 5 0 1 1 1 +1 0 -1 2 NaN NaN 00.5215 00.0000 00.0000 0 NaN NaN
07 3 19 40 0 1 2 4 -1 1 +1 2 NaN NaN 00.6535 00.0000 00.0000 0 NaN NaN
07 3 20 18 0 1 1 1 -1 1 +1 1 2 2 01.1005 01.0217 01.0905 1 0 0
07 3 21 38 0 1 1 3 -1 0 +1 2 NaN NaN 00.4631 00.0000 00.0000 0 NaN NaN
07 3 22 39 0 1 2 4 -1 0 +1 2 NaN NaN 00.3894 00.0000 00.0000 0 NaN NaN
07 3 23 13 0 1 2 1 +1 1 +1 2 NaN NaN 00.4788 00.0000 00.0000 0 NaN NaN
07 3 24 12 0 1 2 1 -1 0 -1 2 NaN NaN 00.4210 00.0000 00.0000 0 NaN NaN
07 3 25 15 1 0 0 0 +0 0 +0 2 NaN NaN 00.3812 00.0000 00.0000 1 NaN NaN
07 3 26 46 0 1 2 1 +1 0 -1 2 NaN NaN 00.4228 00.0000 00.0000 0 NaN NaN
07 3 27 4 0 1 1 3 -1 1 +1 2 NaN NaN 00.4629 00.0000 00.0000 0 NaN NaN
07 3 28 28 0 1 1 1 +1 1 +1 1 1 2 02.1650 00.8095 00.4545 1 1 1
07 3 29 38 0 1 2 3 -1 1 -1 2 NaN NaN 00.2859 00.0000 00.0000 0 NaN NaN
07 3 30 44 0 1 2 3 +1 1 +1 2 NaN NaN 00.4598 00.0000 00.0000 0 NaN NaN
07 3 31 26 0 1 2 1 +1 0 -1 2 NaN NaN 00.4345 00.0000 00.0000 0 NaN NaN
07 3 32 8 0 1 2 1 +1 1 +1 1 2 2 01.2107 00.3750 00.2469 1 1 1
07 3 33 19 0 1 1 4 +1 1 +1 2 NaN NaN 00.2940 00.0000 00.0000 0 NaN NaN
07 3 34 30 1 0 0 0 +0 0 +0 2 NaN NaN 00.6272 00.0000 00.0000 1 NaN NaN
07 3 35 33 0 1 2 4 +1 1 -1 2 NaN NaN 00.5142 00.0000 00.0000 0 NaN NaN
07 3 36 45 0 1 2 3 -1 0 -1 1 2 2 01.3029 00.6238 00.5811 1 1 0
07 3 37 43 0 1 1 4 -1 0 +1 2 NaN NaN 00.3264 00.0000 00.0000 0 NaN NaN
07 3 38 24 0 1 1 4 -1 0 -1 2 NaN NaN 00.4820 00.0000 00.0000 0 NaN NaN
07 3 39 26 0 1 1 3 -1 1 -1 2 NaN NaN 00.9354 00.0000 00.0000 0 NaN NaN
07 3 40 7 0 1 2 1 -1 1 -1 2 NaN NaN 00.4747 00.0000 00.0000 0 NaN NaN
07 3 41 15 0 1 2 3 -1 0 +1 2 NaN NaN 01.2487 00.0000 00.0000 0 NaN NaN
07 3 42 13 1 0 0 0 +0 0 +0 2 NaN NaN 00.6939 00.0000 00.0000 1 NaN NaN
07 3 43 46 0 1 1 4 -1 1 -1 2 NaN NaN 00.5788 00.0000 00.0000 0 NaN NaN
07 3 44 10 1 0 0 0 +0 0 +0 2 NaN NaN 00.8527 00.0000 00.0000 1 NaN NaN
07 3 45 1 0 1 2 3 +1 0 +1 2 NaN NaN 00.6194 00.0000 00.0000 0 NaN NaN
07 3 46 16 0 1 1 3 -1 0 -1 2 NaN NaN 00.4592 00.0000 00.0000 0 NaN NaN
07 3 47 16 0 1 1 3 +1 1 -1 2 NaN NaN 00.2739 00.0000 00.0000 0 NaN NaN
07 3 48 24 0 1 2 4 +1 1 +1 2 NaN NaN 00.4005 00.0000 00.0000 0 NaN NaN
07 3 49 8 1 0 0 0 +0 0 +0 1 2 2 00.9534 00.4968 00.2512 0 0 0
07 3 50 44 0 1 2 1 -1 0 +1 2 NaN NaN 00.3143 00.0000 00.0000 0 NaN NaN
07 3 51 45 0 1 2 1 -1 1 +1 2 NaN NaN 00.4068 00.0000 00.0000 0 NaN NaN
07 3 52 43 1 0 0 0 +0 0 +0 2 NaN NaN 00.3676 00.0000 00.0000 1 NaN NaN
07 3 53 40 1 0 0 0 +0 0 +0 2 NaN NaN 00.4418 00.0000 00.0000 1 NaN NaN
07 3 54 42 0 1 2 4 -1 0 -1 2 NaN NaN 00.2894 00.0000 00.0000 0 NaN NaN
07 3 55 23 0 1 2 1 +1 1 -1 2 NaN NaN 00.3671 00.0000 00.0000 0 NaN NaN
07 3 56 19 0 1 1 1 -1 0 -1 2 NaN NaN 00.3139 00.0000 00.0000 0 NaN NaN
07 3 57 36 0 1 2 1 -1 0 +1 1 1 1 00.8384 00.5147 00.4925 1 0 1
07 3 58 2 0 1 1 1 -1 0 -1 2 NaN NaN 00.5297 00.0000 00.0000 0 NaN NaN
07 3 59 32 0 1 1 1 +1 1 -1 2 NaN NaN 00.3090 00.0000 00.0000 0 NaN NaN
07 3 60 23 0 1 1 1 +1 0 +1 1 2 2 00.5941 00.4243 00.3415 1 0 1
07 3 61 27 0 1 1 1 +1 1 +1 2 NaN NaN 00.2890 00.0000 00.0000 0 NaN NaN
07 3 62 47 1 0 0 0 +0 0 +0 2 NaN NaN 02.2069 00.0000 00.0000 1 NaN NaN
07 3 63 48 0 1 1 4 +1 0 -1 1 2 2 01.0049 00.4023 00.2247 1 0 1
07 3 64 6 0 1 1 1 -1 1 -1 2 NaN NaN 00.3693 00.0000 00.0000 0 NaN NaN
07 3 65 31 0 1 2 4 +1 0 -1 2 NaN NaN 00.4277 00.0000 00.0000 0 NaN NaN
07 3 66 22 0 1 1 4 +1 1 -1 2 NaN NaN 00.3558 00.0000 00.0000 0 NaN NaN
07 3 67 30 0 1 1 1 +1 0 -1 2 NaN NaN 00.6868 00.0000 00.0000 0 NaN NaN
07 3 68 3 0 1 2 4 -1 1 -1 1 2 2 00.6845 00.3990 00.3337 1 1 0
07 3 69 20 0 1 2 3 +1 0 -1 2 NaN NaN 00.3133 00.0000 00.0000 0 NaN NaN
07 3 70 35 0 1 2 1 -1 1 -1 2 NaN NaN 00.4537 00.0000 00.0000 0 NaN NaN
07 3 71 17 0 1 2 1 +1 0 +1 2 NaN NaN 00.6211 00.0000 00.0000 0 NaN NaN
07 3 72 10 1 0 0 0 +0 0 +0 2 NaN NaN 00.3488 00.0000 00.0000 1 NaN NaN
07 3 73 14 0 1 2 4 +1 0 +1 2 NaN NaN 00.3279 00.0000 00.0000 0 NaN NaN
07 3 74 34 1 0 0 0 +0 0 +0 2 NaN NaN 01.0916 00.0000 00.0000 1 NaN NaN
07 3 75 9 0 1 1 4 +1 0 +1 2 NaN NaN 03.0558 00.0000 00.0000 0 NaN NaN
07 3 76 34 0 1 2 1 -1 0 -1 2 NaN NaN 00.5222 00.0000 00.0000 0 NaN NaN
07 3 77 21 0 1 1 4 -1 1 +1 2 NaN NaN 00.3663 00.0000 00.0000 0 NaN NaN
07 3 78 41 1 0 0 0 +0 0 +0 2 NaN NaN 00.4404 00.0000 00.0000 1 NaN NaN
07 3 79 12 1 0 0 0 +0 0 +0 2 NaN NaN 00.4478 00.0000 00.0000 1 NaN NaN
07 3 80 37 0 1 1 1 +1 0 +1 2 NaN NaN 00.5355 00.0000 00.0000 0 NaN NaN
07 4 01 37 0 1 1 1 +1 0 +1 2 NaN NaN 00.7441 00.0000 00.0000 0 NaN NaN
07 4 02 20 0 1 1 1 +1 1 -1 2 NaN NaN 00.5784 00.0000 00.0000 0 NaN NaN
07 4 03 17 0 1 2 1 -1 1 +1 2 NaN NaN 00.5002 00.0000 00.0000 0 NaN NaN
07 4 04 20 0 1 2 3 +1 0 -1 2 NaN NaN 00.4569 00.0000 00.0000 0 NaN NaN
07 4 05 12 0 1 2 1 -1 0 -1 2 NaN NaN 00.5443 00.0000 00.0000 0 NaN NaN
07 4 06 45 0 1 2 1 -1 1 +1 2 NaN NaN 00.6116 00.0000 00.0000 0 NaN NaN
07 4 07 26 0 1 2 1 +1 0 -1 1 2 2 00.8994 00.4451 00.3293 1 1 1
07 4 08 33 0 1 1 1 -1 0 +1 2 NaN NaN 00.5017 00.0000 00.0000 0 NaN NaN
07 4 09 10 1 0 0 0 +0 0 +0 2 NaN NaN 00.4425 00.0000 00.0000 1 NaN NaN
07 4 10 38 0 1 2 3 -1 1 -1 2 NaN NaN 00.3692 00.0000 00.0000 0 NaN NaN
07 4 11 23 0 1 2 1 +1 1 -1 2 NaN NaN 00.4436 00.0000 00.0000 0 NaN NaN
07 4 12 4 0 1 1 3 -1 1 +1 1 2 2 00.8829 00.4132 00.2990 1 0 0
07 4 13 22 1 0 0 0 +0 0 +0 2 NaN NaN 00.3768 00.0000 00.0000 1 NaN NaN
07 4 14 35 0 1 2 1 -1 1 -1 2 NaN NaN 00.3545 00.0000 00.0000 0 NaN NaN
07 4 15 6 0 1 1 3 +1 0 -1 2 NaN NaN 00.4775 00.0000 00.0000 0 NaN NaN
07 4 16 45 0 1 2 3 -1 0 -1 1 2 1 00.6748 00.4540 00.2255 1 1 1
07 4 17 44 0 1 2 3 +1 1 +1 2 NaN NaN 00.4184 00.0000 00.0000 0 NaN NaN
07 4 18 18 0 1 1 1 -1 1 +1 1 2 2 00.7953 02.0730 00.6896 1 0 0
07 4 19 40 1 0 0 0 +0 0 +0 2 NaN NaN 00.4633 00.0000 00.0000 1 NaN NaN
07 4 20 30 0 1 1 1 +1 0 -1 2 NaN NaN 01.1100 00.0000 00.0000 0 NaN NaN
07 4 21 19 0 1 1 4 +1 1 +1 2 NaN NaN 00.4656 00.0000 00.0000 0 NaN NaN
07 4 22 43 1 0 0 0 +0 0 +0 2 NaN NaN 00.7283 00.0000 00.0000 1 NaN NaN
07 4 23 31 0 1 2 4 +1 0 -1 2 NaN NaN 00.4679 00.0000 00.0000 0 NaN NaN
07 4 24 14 0 1 2 3 -1 1 +1 2 NaN NaN 00.3788 00.0000 00.0000 0 NaN NaN
07 4 25 48 0 1 1 4 +1 0 -1 2 NaN NaN 00.7885 00.0000 00.0000 0 NaN NaN
07 4 26 31 0 1 2 3 +1 1 -1 2 NaN NaN 00.4938 00.0000 00.0000 0 NaN NaN
07 4 27 21 0 1 1 4 -1 1 +1 2 NaN NaN 00.6272 00.0000 00.0000 0 NaN NaN
07 4 28 15 0 1 2 3 -1 0 +1 2 NaN NaN 00.7384 00.0000 00.0000 0 NaN NaN
07 4 29 26 0 1 1 3 -1 1 -1 2 NaN NaN 00.7333 00.0000 00.0000 0 NaN NaN
07 4 30 8 1 0 0 0 +0 0 +0 2 NaN NaN 00.9689 00.0000 00.0000 1 NaN NaN
07 4 31 34 1 0 0 0 +0 0 +0 2 NaN NaN 00.5546 00.0000 00.0000 1 NaN NaN
07 4 32 39 0 1 2 4 -1 0 +1 2 NaN NaN 00.4133 00.0000 00.0000 0 NaN NaN
07 4 33 34 0 1 2 1 -1 0 -1 2 NaN NaN 00.3900 00.0000 00.0000 0 NaN NaN
07 4 34 11 0 1 2 1 +1 0 +1 2 NaN NaN 00.4638 00.0000 00.0000 0 NaN NaN
07 4 35 7 0 1 2 1 -1 1 -1 2 NaN NaN 00.4704 00.0000 00.0000 0 NaN NaN
07 4 36 16 0 1 1 3 +1 1 -1 2 NaN NaN 00.4131 00.0000 00.0000 0 NaN NaN
07 4 37 15 1 0 0 0 +0 0 +0 2 NaN NaN 00.3734 00.0000 00.0000 1 NaN NaN
07 4 38 27 0 1 1 1 +1 1 +1 1 1 2 00.9277 00.5519 00.3839 1 1 1
07 4 39 1 0 1 2 3 +1 0 +1 2 NaN NaN 00.5056 00.0000 00.0000 0 NaN NaN
07 4 40 5 0 1 2 1 +1 1 -1 2 NaN NaN 00.5583 00.0000 00.0000 0 NaN NaN
07 4 41 13 0 1 2 1 +1 1 +1 2 NaN NaN 00.4009 00.0000 00.0000 0 NaN NaN
07 4 42 24 0 1 1 4 -1 0 -1 2 NaN NaN 00.4097 00.0000 00.0000 0 NaN NaN
07 4 43 22 0 1 1 4 +1 1 -1 2 NaN NaN 00.6580 00.0000 00.0000 0 NaN NaN
07 4 44 7 1 0 0 0 +0 0 +0 2 NaN NaN 00.4003 00.0000 00.0000 1 NaN NaN
07 4 45 6 0 1 1 1 -1 1 -1 2 NaN NaN 00.3297 00.0000 00.0000 0 NaN NaN
07 4 46 32 0 1 1 1 +1 1 -1 2 NaN NaN 00.2775 00.0000 00.0000 0 NaN NaN
07 4 47 2 0 1 1 1 -1 0 -1 2 NaN NaN 00.4992 00.0000 00.0000 0 NaN NaN
07 4 48 35 1 0 0 0 +0 0 +0 2 NaN NaN 00.4728 00.0000 00.0000 1 NaN NaN
07 4 49 3 0 1 2 4 -1 1 -1 1 2 1 00.5914 00.5663 01.0698 1 1 1
07 4 50 12 1 0 0 0 +0 0 +0 2 NaN NaN 00.4595 00.0000 00.0000 1 NaN NaN
07 4 51 9 0 1 1 1 -1 1 +1 2 NaN NaN 00.6256 00.0000 00.0000 0 NaN NaN
07 4 52 14 0 1 2 4 +1 0 +1 2 NaN NaN 00.4326 00.0000 00.0000 0 NaN NaN
07 4 53 16 0 1 1 3 -1 0 -1 2 NaN NaN 00.3922 00.0000 00.0000 0 NaN NaN
07 4 54 30 1 0 0 0 +0 0 +0 2 NaN NaN 00.7857 00.0000 00.0000 1 NaN NaN
07 4 55 29 0 1 1 3 +1 1 +1 2 NaN NaN 00.4431 00.0000 00.0000 0 NaN NaN
07 4 56 23 0 1 1 1 +1 0 +1 1 2 1 00.6106 00.4241 00.1498 1 0 0
07 4 57 17 0 1 2 1 +1 0 +1 2 NaN NaN 00.4579 00.0000 00.0000 0 NaN NaN
07 4 58 46 0 1 2 1 +1 0 -1 2 NaN NaN 00.4167 00.0000 00.0000 0 NaN NaN
07 4 59 28 0 1 1 1 +1 1 +1 2 NaN NaN 00.7454 00.0000 00.0000 0 NaN NaN
07 4 60 13 1 0 0 0 +0 0 +0 2 NaN NaN 00.3718 00.0000 00.0000 1 NaN NaN
07 4 61 5 0 1 1 1 +1 0 -1 2 NaN NaN 00.3980 00.0000 00.0000 0 NaN NaN
07 4 62 46 0 1 1 4 -1 1 -1 2 NaN NaN 00.5348 00.0000 00.0000 0 NaN NaN
07 4 63 28 0 1 1 3 +1 0 +1 2 NaN NaN 00.3469 00.0000 00.0000 0 NaN NaN
07 4 64 36 0 1 2 1 -1 0 +1 2 NaN NaN 00.2939 00.0000 00.0000 0 NaN NaN
07 4 65 38 0 1 1 3 -1 0 +1 2 NaN NaN 00.3556 00.0000 00.0000 0 NaN NaN
07 4 66 41 1 0 0 0 +0 0 +0 2 NaN NaN 00.6547 00.0000 00.0000 1 NaN NaN
07 4 67 8 0 1 2 1 +1 1 +1 2 NaN NaN 00.9416 00.0000 00.0000 0 NaN NaN
07 4 68 48 0 1 1 1 -1 1 -1 2 NaN NaN 00.3843 00.0000 00.0000 0 NaN NaN
07 4 69 9 0 1 1 4 +1 0 +1 1 2 2 01.6578 00.4838 00.3349 1 0 1
07 4 70 10 1 0 0 0 +0 0 +0 2 NaN NaN 00.3311 00.0000 00.0000 1 NaN NaN
07 4 71 40 0 1 2 4 -1 1 +1 2 NaN NaN 00.4555 00.0000 00.0000 0 NaN NaN
07 4 72 19 0 1 1 1 -1 0 -1 2 NaN NaN 00.4629 00.0000 00.0000 0 NaN NaN
07 4 73 39 1 0 0 0 +0 0 +0 2 NaN NaN 00.5492 00.0000 00.0000 1 NaN NaN
07 4 74 43 0 1 1 4 -1 0 +1 2 NaN NaN 00.6158 00.0000 00.0000 0 NaN NaN
07 4 75 47 1 0 0 0 +0 0 +0 2 NaN NaN 00.4236 00.0000 00.0000 1 NaN NaN
07 4 76 25 0 1 1 1 -1 0 +1 1 1 2 00.6718 00.5311 00.2201 1 1 0
07 4 77 42 0 1 2 4 -1 0 -1 2 NaN NaN 00.3012 00.0000 00.0000 0 NaN NaN
07 4 78 24 0 1 2 4 +1 1 +1 2 NaN NaN 00.4583 00.0000 00.0000 0 NaN NaN
07 4 79 44 0 1 2 1 -1 0 +1 2 NaN NaN 00.3851 00.0000 00.0000 0 NaN NaN
07 4 80 33 0 1 2 4 +1 1 -1 2 NaN NaN 00.2986 00.0000 00.0000 0 NaN NaN
07 5 01 43 0 1 1 4 -1 0 +1 2 NaN NaN 00.7476 00.0000 00.0000 0 NaN NaN
07 5 02 38 0 1 2 3 -1 1 -1 2 NaN NaN 00.4539 00.0000 00.0000 0 NaN NaN
07 5 03 16 0 1 1 3 -1 0 -1 2 NaN NaN 00.3808 00.0000 00.0000 0 NaN NaN
07 5 04 13 0 1 2 1 +1 1 +1 2 NaN NaN 00.3904 00.0000 00.0000 0 NaN NaN
07 5 05 7 0 1 2 1 -1 1 -1 2 NaN NaN 00.8320 00.0000 00.0000 0 NaN NaN
07 5 06 14 0 1 2 3 -1 1 +1 2 NaN NaN 00.4066 00.0000 00.0000 0 NaN NaN
07 5 07 41 1 0 0 0 +0 0 +0 2 NaN NaN 00.4314 00.0000 00.0000 1 NaN NaN
07 5 08 40 0 1 2 4 -1 1 +1 2 NaN NaN 00.7594 00.0000 00.0000 0 NaN NaN
07 5 09 33 0 1 2 4 +1 1 -1 2 NaN NaN 00.4497 00.0000 00.0000 0 NaN NaN
07 5 10 25 0 1 1 1 -1 0 +1 1 2 2 00.7286 00.3930 00.4876 1 0 0
07 5 11 36 0 1 2 1 -1 0 +1 1 2 1 00.6376 01.8104 02.0222 1 1 1
07 5 12 46 0 1 2 1 +1 0 -1 2 NaN NaN 00.5234 00.0000 00.0000 0 NaN NaN
07 5 13 10 1 0 0 0 +0 0 +0 2 NaN NaN 00.3833 00.0000 00.0000 1 NaN NaN
07 5 14 8 0 1 2 1 +1 1 +1 2 NaN NaN 00.3456 00.0000 00.0000 0 NaN NaN
07 5 15 35 0 1 2 1 -1 1 -1 2 NaN NaN 00.3565 00.0000 00.0000 0 NaN NaN
07 5 16 17 0 1 2 1 +1 0 +1 2 NaN NaN 00.3997 00.0000 00.0000 0 NaN NaN
07 5 17 18 0 1 1 1 -1 1 +1 1 1 2 00.7131 00.4744 00.2619 1 1 0
07 5 18 15 1 0 0 0 +0 0 +0 2 NaN NaN 00.4845 00.0000 00.0000 1 NaN NaN
07 5 19 24 0 1 2 4 +1 1 +1 2 NaN NaN 00.3946 00.0000 00.0000 0 NaN NaN
07 5 20 45 0 1 2 3 -1 0 -1 1 2 2 00.7401 00.4046 00.4350 1 1 0
07 5 21 44 0 1 2 3 +1 1 +1 2 NaN NaN 00.4594 00.0000 00.0000 0 NaN NaN
07 5 22 40 1 0 0 0 +0 0 +0 2 NaN NaN 00.4662 00.0000 00.0000 1 NaN NaN
07 5 23 19 0 1 1 4 +1 1 +1 2 NaN NaN 00.2962 00.0000 00.0000 0 NaN NaN
07 5 24 35 1 0 0 0 +0 0 +0 2 NaN NaN 00.3259 00.0000 00.0000 1 NaN NaN
07 5 25 32 0 1 1 1 +1 1 -1 2 NaN NaN 00.3223 00.0000 00.0000 0 NaN NaN
07 5 26 17 0 1 2 1 -1 1 +1 2 NaN NaN 00.5274 00.0000 00.0000 0 NaN NaN
07 5 27 48 0 1 1 1 -1 1 -1 2 NaN NaN 00.3068 00.0000 00.0000 0 NaN NaN
07 5 28 34 0 1 2 1 -1 0 -1 2 NaN NaN 00.3518 00.0000 00.0000 0 NaN NaN
07 5 29 14 0 1 2 4 +1 0 +1 2 NaN NaN 00.4115 00.0000 00.0000 0 NaN NaN
07 5 30 39 1 0 0 0 +0 0 +0 2 NaN NaN 00.3403 00.0000 00.0000 1 NaN NaN
07 5 31 29 0 1 1 3 +1 1 +1 2 NaN NaN 00.3841 00.0000 00.0000 0 NaN NaN
07 5 32 22 0 1 1 4 +1 1 -1 2 NaN NaN 00.3776 00.0000 00.0000 0 NaN NaN
07 5 33 19 0 1 1 1 -1 0 -1 2 NaN NaN 00.3871 00.0000 00.0000 0 NaN NaN
07 5 34 48 0 1 1 4 +1 0 -1 2 NaN NaN 00.3493 00.0000 00.0000 0 NaN NaN
07 5 35 39 0 1 2 4 -1 0 +1 2 NaN NaN 00.3765 00.0000 00.0000 0 NaN NaN
07 5 36 12 0 1 2 1 -1 0 -1 2 NaN NaN 00.3866 00.0000 00.0000 0 NaN NaN
07 5 37 46 0 1 1 4 -1 1 -1 2 NaN NaN 00.3329 00.0000 00.0000 0 NaN NaN
07 5 38 28 0 1 1 1 +1 1 +1 2 NaN NaN 00.8406 00.0000 00.0000 0 NaN NaN
07 5 39 16 0 1 1 3 +1 1 -1 2 NaN NaN 00.5914 00.0000 00.0000 0 NaN NaN
07 5 40 27 0 1 1 1 +1 1 +1 1 2 2 00.8486 00.5402 00.8040 1 0 1
07 5 41 1 0 1 2 3 +1 0 +1 2 NaN NaN 00.4138 00.0000 00.0000 0 NaN NaN
07 5 42 5 0 1 1 1 +1 0 -1 2 NaN NaN 00.3106 00.0000 00.0000 0 NaN NaN
07 5 43 28 0 1 1 3 +1 0 +1 2 NaN NaN 00.3078 00.0000 00.0000 0 NaN NaN
07 5 44 7 1 0 0 0 +0 0 +0 2 NaN NaN 00.2568 00.0000 00.0000 1 NaN NaN
07 5 45 8 1 0 0 0 +0 0 +0 1 2 1 00.9599 00.4870 00.2259 0 0 0
07 5 46 38 0 1 1 3 -1 0 +1 2 NaN NaN 00.4497 00.0000 00.0000 0 NaN NaN
07 5 47 47 1 0 0 0 +0 0 +0 2 NaN NaN 00.4085 00.0000 00.0000 1 NaN NaN
07 5 48 2 0 1 1 1 -1 0 -1 2 NaN NaN 00.4327 00.0000 00.0000 0 NaN NaN
07 5 49 24 0 1 1 4 -1 0 -1 2 NaN NaN 00.4247 00.0000 00.0000 0 NaN NaN
07 5 50 45 0 1 2 1 -1 1 +1 2 NaN NaN 00.3850 00.0000 00.0000 0 NaN NaN
07 5 51 26 0 1 1 3 -1 1 -1 2 NaN NaN 00.5712 00.0000 00.0000 0 NaN NaN
07 5 52 30 0 1 1 1 +1 0 -1 2 NaN NaN 00.6532 00.0000 00.0000 0 NaN NaN
07 5 53 21 0 1 1 4 -1 1 +1 2 NaN NaN 00.5081 00.0000 00.0000 0 NaN NaN
07 5 54 30 1 0 0 0 +0 0 +0 2 NaN NaN 00.5769 00.0000 00.0000 1 NaN NaN
07 5 55 6 0 1 1 1 -1 1 -1 2 NaN NaN 00.3707 00.0000 00.0000 0 NaN NaN
07 5 56 20 0 1 1 1 +1 1 -1 2 NaN NaN 00.4937 00.0000 00.0000 0 NaN NaN
07 5 57 31 0 1 2 3 +1 1 -1 2 NaN NaN 00.3545 00.0000 00.0000 0 NaN NaN
07 5 58 10 1 0 0 0 +0 0 +0 2 NaN NaN 00.5574 00.0000 00.0000 1 NaN NaN
07 5 59 23 0 1 1 1 +1 0 +1 1 2 2 00.8801 00.4904 00.3411 1 0 1
07 5 60 6 0 1 1 3 +1 0 -1 2 NaN NaN 00.2735 00.0000 00.0000 0 NaN NaN
07 5 61 15 0 1 2 3 -1 0 +1 2 NaN NaN 00.3200 00.0000 00.0000 0 NaN NaN
07 5 62 11 0 1 2 1 +1 0 +1 2 NaN NaN 00.4285 00.0000 00.0000 0 NaN NaN
07 5 63 4 0 1 1 3 -1 1 +1 2 NaN NaN 00.4679 00.0000 00.0000 0 NaN NaN
07 5 64 33 0 1 1 1 -1 0 +1 2 NaN NaN 00.4906 00.0000 00.0000 0 NaN NaN
07 5 65 44 0 1 2 1 -1 0 +1 2 NaN NaN 00.3681 00.0000 00.0000 0 NaN NaN
07 5 66 20 0 1 2 3 +1 0 -1 2 NaN NaN 00.4424 00.0000 00.0000 0 NaN NaN
07 5 67 34 1 0 0 0 +0 0 +0 2 NaN NaN 00.3212 00.0000 00.0000 1 NaN NaN
07 5 68 37 0 1 1 1 +1 0 +1 2 NaN NaN 00.9262 00.0000 00.0000 0 NaN NaN
07 5 69 3 0 1 2 4 -1 1 -1 1 2 1 00.6574 00.4534 00.1940 1 1 1
07 5 70 13 1 0 0 0 +0 0 +0 2 NaN NaN 00.2751 00.0000 00.0000 1 NaN NaN
07 5 71 22 1 0 0 0 +0 0 +0 2 NaN NaN 00.3854 00.0000 00.0000 1 NaN NaN
07 5 72 42 0 1 2 4 -1 0 -1 2 NaN NaN 00.3473 00.0000 00.0000 0 NaN NaN
07 5 73 43 1 0 0 0 +0 0 +0 2 NaN NaN 00.2621 00.0000 00.0000 1 NaN NaN
07 5 74 9 0 1 1 1 -1 1 +1 2 NaN NaN 00.3086 00.0000 00.0000 0 NaN NaN
07 5 75 12 1 0 0 0 +0 0 +0 2 NaN NaN 00.3850 00.0000 00.0000 1 NaN NaN
07 5 76 26 0 1 2 1 +1 0 -1 2 NaN NaN 00.2985 00.0000 00.0000 0 NaN NaN
07 5 77 31 0 1 2 4 +1 0 -1 2 NaN NaN 00.4242 00.0000 00.0000 0 NaN NaN
07 5 78 9 0 1 1 4 +1 0 +1 2 NaN NaN 00.3205 00.0000 00.0000 0 NaN NaN
07 5 79 23 0 1 2 1 +1 1 -1 2 NaN NaN 00.3329 00.0000 00.0000 0 NaN NaN
07 5 80 5 0 1 2 1 +1 1 -1 2 NaN NaN 00.3605 00.0000 00.0000 0 NaN NaN
07 6 01 48 0 1 1 1 -1 1 -1 2 NaN NaN 00.5765 00.0000 00.0000 0 NaN NaN
07 6 02 11 0 1 2 1 +1 0 +1 2 NaN NaN 00.4671 00.0000 00.0000 0 NaN NaN
07 6 03 2 0 1 1 1 -1 0 -1 2 NaN NaN 00.9854 00.0000 00.0000 0 NaN NaN
07 6 04 23 0 1 1 1 +1 0 +1 1 2 1 00.5224 00.4034 00.1611 1 0 0
07 6 05 8 1 0 0 0 +0 0 +0 1 1 2 00.8058 00.6110 00.1532 0 0 0
07 6 06 26 0 1 2 1 +1 0 -1 2 NaN NaN 00.8764 00.0000 00.0000 0 NaN NaN
07 6 07 9 0 1 1 4 +1 0 +1 1 2 1 00.6891 00.4357 00.1289 1 0 0
07 6 08 9 0 1 1 1 -1 1 +1 2 NaN NaN 00.5010 00.0000 00.0000 0 NaN NaN
07 6 09 33 0 1 1 1 -1 0 +1 2 NaN NaN 00.4102 00.0000 00.0000 0 NaN NaN
07 6 10 26 0 1 1 3 -1 1 -1 2 NaN NaN 00.3705 00.0000 00.0000 0 NaN NaN
07 6 11 21 0 1 1 4 -1 1 +1 2 NaN NaN 00.4933 00.0000 00.0000 0 NaN NaN
07 6 12 46 0 1 2 1 +1 0 -1 2 NaN NaN 00.5306 00.0000 00.0000 0 NaN NaN
07 6 13 22 0 1 1 4 +1 1 -1 2 NaN NaN 00.6141 00.0000 00.0000 0 NaN NaN
07 6 14 47 1 0 0 0 +0 0 +0 2 NaN NaN 00.4384 00.0000 00.0000 1 NaN NaN
07 6 15 45 0 1 2 3 -1 0 -1 1 1 2 00.6700 00.6414 00.1341 1 0 0
07 6 16 27 0 1 1 1 +1 1 +1 1 1 2 00.5548 00.5949 00.2333 1 1 1
07 6 17 15 0 1 2 3 -1 0 +1 2 NaN NaN 00.6177 00.0000 00.0000 0 NaN NaN
07 6 18 12 1 0 0 0 +0 0 +0 2 NaN NaN 00.4736 00.0000 00.0000 1 NaN NaN
07 6 19 17 0 1 2 1 -1 1 +1 1 2 1 01.1518 00.3669 00.1907 1 1 1
07 6 20 44 0 1 2 1 -1 0 +1 2 NaN NaN 00.4647 00.0000 00.0000 0 NaN NaN
07 6 21 19 0 1 1 1 -1 0 -1 2 NaN NaN 00.4234 00.0000 00.0000 0 NaN NaN
07 6 22 31 0 1 2 3 +1 1 -1 2 NaN NaN 00.5757 00.0000 00.0000 0 NaN NaN
07 6 23 5 0 1 2 1 +1 1 -1 2 NaN NaN 00.3856 00.0000 00.0000 0 NaN NaN
07 6 24 7 0 1 2 1 -1 1 -1 2 NaN NaN 00.3477 00.0000 00.0000 0 NaN NaN
07 6 25 1 0 1 2 3 +1 0 +1 2 NaN NaN 00.8068 00.0000 00.0000 0 NaN NaN
07 6 26 24 0 1 1 4 -1 0 -1 2 NaN NaN 00.4149 00.0000 00.0000 0 NaN NaN
07 6 27 44 0 1 2 3 +1 1 +1 2 NaN NaN 00.3917 00.0000 00.0000 0 NaN NaN
07 6 28 36 0 1 2 1 -1 0 +1 1 1 2 00.6579 00.4519 00.1124 1 0 0
07 6 29 35 0 1 2 1 -1 1 -1 2 NaN NaN 00.2771 00.0000 00.0000 0 NaN NaN
07 6 30 19 0 1 1 4 +1 1 +1 2 NaN NaN 00.3394 00.0000 00.0000 0 NaN NaN
07 6 31 24 0 1 2 4 +1 1 +1 2 NaN NaN 00.3991 00.0000 00.0000 0 NaN NaN
07 6 32 28 0 1 1 3 +1 0 +1 2 NaN NaN 00.4881 00.0000 00.0000 0 NaN NaN
07 6 33 43 1 0 0 0 +0 0 +0 2 NaN NaN 00.3660 00.0000 00.0000 1 NaN NaN
07 6 34 42 0 1 2 4 -1 0 -1 2 NaN NaN 00.3764 00.0000 00.0000 0 NaN NaN
07 6 35 37 0 1 1 1 +1 0 +1 2 NaN NaN 00.6425 00.0000 00.0000 0 NaN NaN
07 6 36 17 0 1 2 1 +1 0 +1 2 NaN NaN 00.6098 00.0000 00.0000 0 NaN NaN
07 6 37 40 1 0 0 0 +0 0 +0 2 NaN NaN 00.5616 00.0000 00.0000 1 NaN NaN
07 6 38 31 0 1 2 4 +1 0 -1 2 NaN NaN 00.3074 00.0000 00.0000 0 NaN NaN
07 6 39 8 0 1 2 1 +1 1 +1 2 NaN NaN 00.3045 00.0000 00.0000 0 NaN NaN
07 6 40 30 1 0 0 0 +0 0 +0 2 NaN NaN 00.4303 00.0000 00.0000 1 NaN NaN
07 6 41 14 0 1 2 4 +1 0 +1 2 NaN NaN 00.5344 00.0000 00.0000 0 NaN NaN
07 6 42 29 0 1 1 3 +1 1 +1 2 NaN NaN 00.4103 00.0000 00.0000 0 NaN NaN
07 6 43 23 0 1 2 1 +1 1 -1 2 NaN NaN 00.3866 00.0000 00.0000 0 NaN NaN
07 6 44 34 1 0 0 0 +0 0 +0 2 NaN NaN 00.3169 00.0000 00.0000 1 NaN NaN
07 6 45 39 0 1 2 4 -1 0 +1 2 NaN NaN 00.2972 00.0000 00.0000 0 NaN NaN
07 6 46 16 0 1 1 3 -1 0 -1 2 NaN NaN 00.2948 00.0000 00.0000 0 NaN NaN
07 6 47 32 0 1 1 1 +1 1 -1 2 NaN NaN 00.8520 00.0000 00.0000 0 NaN NaN
07 6 48 10 1 0 0 0 +0 0 +0 2 NaN NaN 00.3787 00.0000 00.0000 1 NaN NaN
07 6 49 10 1 0 0 0 +0 0 +0 2 NaN NaN 00.3084 00.0000 00.0000 1 NaN NaN
07 6 50 18 0 1 1 1 -1 1 +1 2 NaN NaN 00.3053 00.0000 00.0000 0 NaN NaN
07 6 51 22 1 0 0 0 +0 0 +0 2 NaN NaN 00.3671 00.0000 00.0000 1 NaN NaN
07 6 52 4 0 1 1 3 -1 1 +1 2 NaN NaN 00.3295 00.0000 00.0000 0 NaN NaN
07 6 53 28 0 1 1 1 +1 1 +1 2 NaN NaN 00.5970 00.0000 00.0000 0 NaN NaN
07 6 54 14 0 1 2 3 -1 1 +1 2 NaN NaN 00.3582 00.0000 00.0000 0 NaN NaN
07 6 55 46 0 1 1 4 -1 1 -1 2 NaN NaN 00.4177 00.0000 00.0000 0 NaN NaN
07 6 56 38 0 1 1 3 -1 0 +1 2 NaN NaN 00.4414 00.0000 00.0000 0 NaN NaN
07 6 57 48 0 1 1 4 +1 0 -1 2 NaN NaN 00.5769 00.0000 00.0000 0 NaN NaN
07 6 58 20 0 1 2 3 +1 0 -1 2 NaN NaN 00.4180 00.0000 00.0000 0 NaN NaN
07 6 59 38 0 1 2 3 -1 1 -1 2 NaN NaN 00.4749 00.0000 00.0000 0 NaN NaN
07 6 60 12 0 1 2 1 -1 0 -1 2 NaN NaN 00.4170 00.0000 00.0000 0 NaN NaN
07 6 61 5 0 1 1 1 +1 0 -1 2 NaN NaN 00.5058 00.0000 00.0000 0 NaN NaN
07 6 62 41 1 0 0 0 +0 0 +0 2 NaN NaN 00.5906 00.0000 00.0000 1 NaN NaN
07 6 63 16 0 1 1 3 +1 1 -1 2 NaN NaN 00.2878 00.0000 00.0000 0 NaN NaN
07 6 64 6 0 1 1 3 +1 0 -1 2 NaN NaN 00.4941 00.0000 00.0000 0 NaN NaN
07 6 65 40 0 1 2 4 -1 1 +1 2 NaN NaN 00.3235 00.0000 00.0000 0 NaN NaN
07 6 66 15 1 0 0 0 +0 0 +0 2 NaN NaN 00.4479 00.0000 00.0000 1 NaN NaN
07 6 67 33 0 1 2 4 +1 1 -1 2 NaN NaN 00.6946 00.0000 00.0000 0 NaN NaN
07 6 68 13 0 1 2 1 +1 1 +1 2 NaN NaN 00.5309 00.0000 00.0000 0 NaN NaN
07 6 69 7 1 0 0 0 +0 0 +0 2 NaN NaN 00.4230 00.0000 00.0000 1 NaN NaN
07 6 70 30 0 1 1 1 +1 0 -1 2 NaN NaN 00.7678 00.0000 00.0000 0 NaN NaN
07 6 71 35 1 0 0 0 +0 0 +0 2 NaN NaN 00.3460 00.0000 00.0000 1 NaN NaN
07 6 72 6 0 1 1 1 -1 1 -1 2 NaN NaN 00.3570 00.0000 00.0000 0 NaN NaN
07 6 73 13 1 0 0 0 +0 0 +0 2 NaN NaN 00.3038 00.0000 00.0000 1 NaN NaN
07 6 74 39 1 0 0 0 +0 0 +0 2 NaN NaN 00.3656 00.0000 00.0000 1 NaN NaN
07 6 75 20 0 1 1 1 +1 1 -1 2 NaN NaN 00.4239 00.0000 00.0000 0 NaN NaN
07 6 76 3 0 1 2 4 -1 1 -1 1 2 1 00.7848 00.6553 00.1793 1 1 1
07 6 77 43 0 1 1 4 -1 0 +1 1 2 2 00.6454 00.5214 00.3221 1 0 0
07 6 78 25 0 1 1 1 -1 0 +1 1 1 2 00.9274 00.4397 00.1314 1 1 0
07 6 79 34 0 1 2 1 -1 0 -1 2 NaN NaN 00.5047 00.0000 00.0000 0 NaN NaN
07 6 80 45 0 1 2 1 -1 1 +1 2 NaN NaN 01.1014 00.0000 00.0000 0 NaN NaN
