sub block trial obj foil exp maze DP turn attend pos resp1 resp2 resp3 RT1 RT2 RT3 correct1 correct2 correct3
Subject 03 -- attend vehicles
03 1 01 12 0 1 1 4 +1 1 -1 1 1 1 04.1756 09.0248 03.0461 1 1 0
03 1 02 2 1 0 0 0 +0 0 +0 2 NaN NaN 01.7996 00.0000 00.0000 1 NaN NaN
03 1 03 39 0 1 2 3 -1 1 +1 1 1 1 03.4457 02.4368 02.1263 1 0 1
03 1 04 7 0 1 2 3 +1 0 -1 1 1 1 03.9032 01.4509 01.4375 1 0 0
03 1 05 29 0 1 2 3 -1 0 -1 2 NaN NaN 01.3557 00.0000 00.0000 0 NaN NaN
03 1 06 44 0 1 2 1 +1 1 -1 2 NaN NaN 01.3574 00.0000 00.0000 0 NaN NaN
03 1 07 28 0 1 1 1 +1 0 -1 1 1 2 01.1505 02.3016 00.9085 1 1 1
03 1 08 41 1 0 0 0 +0 0 +0 1 1 2 01.2483 01.6272 01.0140 0 0 0
03 1 09 21 0 1 1 3 -1 1 -1 1 1 1 01.0771 01.7989 00.9068 1 1 1
03 1 10 26 1 0 0 0 +0 0 +0 2 NaN NaN 05.5834 00.0000 00.0000 1 NaN NaN
03 1 11 6 0 1 2 1 -1 1 +1 2 NaN NaN 01.7118 00.0000 00.0000 0 NaN NaN
03 1 12 48 0 1 1 1 -1 0 -1 1 1 1 00.8500 01.9976 00.9852 1 1 1
03 1 13 24 0 1 1 1 -1 0 -1 2 NaN NaN 03.2575 00.0000 00.0000 0 NaN NaN
03 1 14 18 0 1 1 1 +1 1 +1 2 NaN NaN 00.8268 00.0000 00.0000 0 NaN NaN
03 1 15 11 0 1 2 1 +1 0 -1 2 NaN NaN 02.8016 00.0000 00.0000 0 NaN NaN
03 1 16 32 0 1 1 1 -1 0 +1 2 NaN NaN 01.3659 00.0000 00.0000 0 NaN NaN
03 1 17 18 0 1 1 4 +1 0 -1 1 2 2 01.9263 02.5971 00.5836 1 0 1
03 1 18 25 0 1 1 3 +1 1 -1 1 1 1 01.4487 05.2111 00.4485 1 1 0
03 1 19 33 0 1 2 3 -1 1 -1 2 NaN NaN 02.3273 00.0000 00.0000 0 NaN NaN
03 1 20 28 0 1 1 1 +1 1 -1 1 1 2 00.9277 00.6000 01.6934 1 1 1
03 1 21 8 0 1 2 1 -1 1 -1 2 NaN NaN 01.1044 00.0000 00.0000 0 NaN NaN
03 1 22 34 0 1 1 3 -1 0 -1 2 NaN NaN 00.8446 00.0000 00.0000 0 NaN NaN
03 1 23 46 0 1 2 1 +1 0 -1 2 NaN NaN 01.3787 00.0000 00.0000 0 NaN NaN
03 1 24 17 0 1 1 1 +1 0 +1 2 NaN NaN 00.7862 00.0000 00.0000 0 NaN NaN
03 1 25 39 1 0 0 0 +0 0 +0 1 2 1 01.0351 00.7032 00.2569 0 0 0
03 1 26 16 0 1 1 4 +1 0 +1 2 NaN NaN 00.7362 00.0000 00.0000 0 NaN NaN
03 1 27 15 0 1 2 1 -1 0 -1 1 1 1 01.0191 01.3277 01.0152 1 0 1
03 1 28 22 1 0 0 0 +0 0 +0 2 NaN NaN 00.7749 00.0000 00.0000 1 NaN NaN
03 1 29 30 0 1 1 1 -1 1 +1 2 NaN NaN 01.1363 00.0000 00.0000 0 NaN NaN
03 1 30 40 0 1 1 4 -1 1 +1 1 1 1 00.8751 01.1566 00.7394 1 1 1
03 1 31 42 0 1 2 4 +1 1 -1 1 1 1 01.2628 00.3289 00.1382 1 0 0
03 1 32 4 0 1 2 1 +1 1 -1 2 NaN NaN 00.5903 00.0000 00.0000 0 NaN NaN
03 1 33 47 0 1 1 3 +1 0 -1 2 NaN NaN 01.7115 00.0000 00.0000 0 NaN NaN
03 1 34 38 0 1 2 4 -1 1 +1 1 1 2 02.9458 00.4856 00.7845 1 0 0
03 1 35 27 0 1 2 4 +1 0 +1 2 NaN NaN 01.1452 00.0000 00.0000 0 NaN NaN
03 1 36 48 0 1 2 1 -1 1 +1 2 NaN NaN 00.8188 00.0000 00.0000 0 NaN NaN
03 1 37 1 0 1 2 3 +1 1 -1 2 NaN NaN 00.8427 00.0000 00.0000 0 NaN NaN
03 1 38 30 1 0 0 0 +0 0 +0 2 NaN NaN 00.7854 00.0000 00.0000 1 NaN NaN
03 1 39 6 0 1 2 1 -1 0 +1 2 NaN NaN 00.8263 00.0000 00.0000 0 NaN NaN
03 1 40 43 1 0 0 0 +0 0 +0 2 NaN NaN 01.6337 00.0000 00.0000 1 NaN NaN
03 1 41 35 0 1 1 1 +1 0 -1 2 NaN NaN 00.7108 00.0000 00.0000 0 NaN NaN
03 1 42 3 1 0 0 0 +0 0 +0 2 NaN NaN 01.5224 00.0000 00.0000 1 NaN NaN
03 1 43 24 0 1 1 1 -1 1 -1 2 NaN NaN 02.0605 00.0000 00.0000 0 NaN NaN
03 1 44 22 0 1 2 3 -1 0 +1 2 NaN NaN 00.6562 00.0000 00.0000 0 NaN NaN
03 1 45 47 0 1 1 1 +1 1 -1 2 NaN NaN 02.0306 00.0000 00.0000 0 NaN NaN
03 1 46 14 0 1 1 4 +1 1 +1 2 NaN NaN 02.8670 00.0000 00.0000 0 NaN NaN
03 1 47 32 0 1 1 4 -1 1 -1 2 NaN NaN 01.0285 00.0000 00.0000 0 NaN NaN
03 1 48 36 1 0 0 0 +0 0 +0 2 NaN NaN 01.2028 00.0000 00.0000 1 NaN NaN
03 1 49 3 0 1 1 4 -1 0 -1 2 NaN NaN 00.7147 00.0000 00.0000 0 NaN NaN
03 1 50 38 1 0 0 0 +0 0 +0 2 NaN NaN 00.6950 00.0000 00.0000 1 NaN NaN
03 1 51 34 0 1 1 3 +1 1 +1 2 NaN NaN 00.7713 00.0000 00.0000 0 NaN NaN
03 1 52 44 1 0 0 0 +0 0 +0 2 NaN NaN 00.6855 00.0000 00.0000 1 NaN NaN
03 1 53 23 0 1 1 4 -1 0 +1 1 1 1 00.8426 00.7742 00.7567 1 1 1
03 1 54 29 0 1 2 4 +1 1 +1 1 2 2 01.0556 01.3149 00.1551 1 1 1
03 1 55 35 1 0 0 0 +0 0 +0 2 NaN NaN 00.9270 00.0000 00.0000 1 NaN NaN
03 1 56 20 0 1 2 1 +1 1 +1 2 NaN NaN 01.3622 00.0000 00.0000 0 NaN NaN
03 1 57 19 0 1 1 1 -1 1 +1 1 1 1 00.8512 00.4790 00.8581 1 1 1
03 1 58 43 0 1 1 1 +1 1 +1 2 NaN NaN 00.8800 00.0000 00.0000 0 NaN NaN
03 1 59 41 0 1 2 1 -1 0 -1 2 NaN NaN 00.7732 00.0000 00.0000 0 NaN NaN
03 1 60 8 0 1 1 1 -1 0 +1 2 NaN NaN 01.0069 00.0000 00.0000 0 NaN NaN
03 1 61 37 1 0 0 0 +0 0 +0 2 NaN NaN 00.8792 00.0000 00.0000 1 NaN NaN
03 1 62 5 0 1 2 4 -1 1 -1 2 NaN NaN 03.1719 00.0000 00.0000 0 NaN NaN
03 1 63 37 0 1 1 3 +1 0 +1 2 NaN NaN 01.2888 00.0000 00.0000 0 NaN NaN
03 1 64 10 1 0 0 0 +0 0 +0 2 NaN NaN 03.0052 00.0000 00.0000 1 NaN NaN
03 1 65 11 0 1 1 3 -1 1 +1 1 2 1 01.8811 00.3135 00.1235 1 0 1
03 1 66 21 0 1 2 1 -1 0 +1 2 NaN NaN 00.6721 00.0000 00.0000 0 NaN NaN
03 1 67 25 0 1 2 4 -1 0 +1 2 NaN NaN 00.7345 00.0000 00.0000 0 NaN NaN
03 1 68 33 0 1 2 1 +1 0 +1 2 NaN NaN 00.5542 00.0000 00.0000 0 NaN NaN
03 1 69 19 1 0 0 0 +0 0 +0 2 NaN NaN 00.6853 00.0000 00.0000 1 NaN NaN
03 1 70 31 0 1 2 1 +1 1 +1 2 NaN NaN 00.7143 00.0000 00.0000 0 NaN NaN
03 1 71 40 0 1 2 4 +1 0 -1 2 NaN NaN 00.6460 00.0000 00.0000 0 NaN NaN
03 1 72 13 0 1 2 3 +1 1 +1 1 1 2 01.1405 01.4752 00.6618 1 0 1
03 1 73 26 1 0 0 0 +0 0 +0 2 NaN NaN 00.7403 00.0000 00.0000 1 NaN NaN
03 1 74 31 0 1 1 3 -1 0 +1 2 NaN NaN 03.8872 00.0000 00.0000 0 NaN NaN
03 1 75 42 0 1 2 1 +1 0 +1 2 NaN NaN 00.6627 00.0000 00.0000 0 NaN NaN
03 1 76 45 0 1 2 1 -1 1 -1 2 NaN NaN 00.7091 00.0000 00.0000 0 NaN NaN
03 1 77 46 0 1 1 1 -1 1 -1 1 1 2 01.5534 00.4639 00.6676 1 1 0
03 1 78 9 0 1 2 3 +1 0 +1 2 NaN NaN 00.7619 00.0000 00.0000 0 NaN NaN
03 1 79 14 0 1 1 1 +1 0 +1 2 NaN NaN 00.5479 00.0000 00.0000 0 NaN NaN
03 1 80 2 0 1 2 4 -1 0 -1 2 NaN NaN 00.5347 00.0000 00.0000 0 NaN NaN
03 2 01 11 0 1 2 1 +1 0 -1 2 NaN NaN 00.9613 00.0000 00.0000 0 NaN NaN
03 2 02 18 0 1 1 1 +1 1 +1 2 NaN NaN 02.2744 00.0000 00.0000 0 NaN NaN
03 2 03 47 0 1 1 1 +1 1 -1 2 NaN NaN 01.1339 00.0000 00.0000 0 NaN NaN
03 2 04 15 0 1 2 1 -1 0 -1 1 2 2 01.0318 03.5640 01.2382 1 1 0
03 2 05 35 1 0 0 0 +0 0 +0 2 NaN NaN 00.8281 00.0000 00.0000 1 NaN NaN
03 2 06 24 0 1 1 1 -1 0 -1 2 NaN NaN 00.5629 00.0000 00.0000 0 NaN NaN
03 2 07 35 0 1 1 1 +1 0 -1 2 NaN NaN 00.5654 00.0000 00.0000 0 NaN NaN
03 2 08 29 0 1 2 3 -1 0 -1 2 NaN NaN 00.5520 00.0000 00.0000 0 NaN NaN
03 2 09 25 0 1 2 4 -1 0 +1 2 NaN NaN 00.7626 00.0000 00.0000 0 NaN NaN
03 2 10 30 1 0 0 0 +0 0 +0 2 NaN NaN 00.8681 00.0000 00.0000 1 NaN NaN
03 2 11 24 0 1 1 1 -1 1 -1 2 NaN NaN 00.9534 00.0000 00.0000 0 NaN NaN
03 2 12 33 0 1 2 3 -1 1 -1 2 NaN NaN 00.8912 00.0000 00.0000 0 NaN NaN
03 2 13 31 0 1 2 1 +1 1 +1 2 NaN NaN 02.0319 00.0000 00.0000 0 NaN NaN
03 2 14 48 0 1 2 1 -1 1 +1 2 NaN NaN 00.5962 00.0000 00.0000 0 NaN NaN
03 2 15 38 1 0 0 0 +0 0 +0 2 NaN NaN 00.5488 00.0000 00.0000 1 NaN NaN
03 2 16 39 1 0 0 0 +0 0 +0 2 NaN NaN 00.4553 00.0000 00.0000 1 NaN NaN
03 2 17 17 0 1 1 1 +1 0 +1 2 NaN NaN 00.4621 00.0000 00.0000 0 NaN NaN
03 2 18 2 0 1 2 4 -1 0 -1 2 NaN NaN 00.4841 00.0000 00.0000 0 NaN NaN
03 2 19 22 0 1 2 3 -1 0 +1 2 NaN NaN 00.4102 00.0000 00.0000 0 NaN NaN
03 2 20 44 1 0 0 0 +0 0 +0 2 NaN NaN 00.4190 00.0000 00.0000 1 NaN NaN
03 2 21 39 0 1 2 3 -1 1 +1 1 1 1 01.3719 00.6740 01.5091 1 0 1
03 2 22 14 0 1 1 4 +1 1 +1 2 NaN NaN 00.6079 00.0000 00.0000 0 NaN NaN
03 2 23 47 0 1 1 3 +1 0 -1 2 NaN NaN 00.8164 00.0000 00.0000 0 NaN NaN
03 2 24 19 0 1 1 1 -1 1 +1 1 1 1 00.9046 00.2737 00.1657 1 1 1
03 2 25 21 0 1 1 3 -1 1 -1 1 1 1 02.6803 00.1352 00.1447 1 1 1
03 2 26 37 0 1 1 3 +1 0 +1 2 NaN NaN 00.5322 00.0000 00.0000 0 NaN NaN
03 2 27 40 0 1 1 4 -1 1 +1 1 1 1 01.0474 00.1387 00.1475 1 1 1
03 2 28 46 0 1 1 1 -1 1 -1 1 1 1 02.5677 00.1716 00.1152 1 1 1
03 2 29 5 0 1 2 4 -1 1 -1 2 NaN NaN 01.2565 00.0000 00.0000 0 NaN NaN
03 2 30 3 1 0 0 0 +0 0 +0 2 NaN NaN 00.7499 00.0000 00.0000 1 NaN NaN
03 2 31 21 0 1 2 1 -1 0 +1 2 NaN NaN 00.5039 00.0000 00.0000 0 NaN NaN
03 2 32 30 0 1 1 1 -1 1 +1 2 NaN NaN 01.5972 00.0000 00.0000 0 NaN NaN
03 2 33 20 0 1 2 1 +1 1 +1 2 NaN NaN 00.5479 00.0000 00.0000 0 NaN NaN
03 2 34 48 0 1 1 1 -1 0 -1 1 1 1 00.9025 00.1599 00.1844 1 1 1
03 2 35 9 0 1 2 3 +1 0 +1 2 NaN NaN 00.5383 00.0000 00.0000 0 NaN NaN
03 2 36 4 0 1 2 1 +1 1 -1 2 NaN NaN 00.8136 00.0000 00.0000 0 NaN NaN
03 2 37 33 0 1 2 1 +1 0 +1 2 NaN NaN 00.5336 00.0000 00.0000 0 NaN NaN
03 2 38 22 1 0 0 0 +0 0 +0 2 NaN NaN 03.5616 00.0000 00.0000 1 NaN NaN
03 2 39 25 0 1 1 3 +1 1 -1 2 NaN NaN 00.6705 00.0000 00.0000 0 NaN NaN
03 2 40 12 0 1 1 4 +1 1 -1 1 2 2 00.9728 00.7876 00.5617 1 0 1
03 2 41 10 1 0 0 0 +0 0 +0 2 NaN NaN 00.5640 00.0000 00.0000 1 NaN NaN
03 2 42 43 0 1 1 1 +1 1 +1 2 NaN NaN 00.5339 00.0000 00.0000 0 NaN NaN
03 2 43 2 1 0 0 0 +0 0 +0 2 NaN NaN 00.7458 00.0000 00.0000 1 NaN NaN
03 2 44 41 1 0 0 0 +0 0 +0 2 NaN NaN 00.5321 00.0000 00.0000 1 NaN NaN
03 2 45 16 0 1 1 4 +1 0 +1 2 NaN NaN 00.5193 00.0000 00.0000 0 NaN NaN
03 2 46 45 0 1 2 1 -1 1 -1 2 NaN NaN 00.6352 00.0000 00.0000 0 NaN NaN
03 2 47 1 0 1 2 3 +1 1 -1 2 NaN NaN 00.5230 00.0000 00.0000 0 NaN NaN
03 2 48 40 0 1 2 4 +1 0 -1 2 NaN NaN 00.3990 00.0000 00.0000 0 NaN NaN
03 2 49 31 0 1 1 3 -1 0 +1 2 NaN NaN 00.5519 00.0000 00.0000 0 NaN NaN
03 2 50 38 0 1 2 4 -1 1 +1 1 2 1 01.1146 00.4109 00.2488 1 1 1
03 2 51 34 0 1 1 3 +1 1 +1 2 NaN NaN 00.7606 00.0000 00.0000 0 NaN NaN
03 2 52 14 0 1 1 1 +1 0 +1 2 NaN NaN 00.5947 00.0000 00.0000 0 NaN NaN
03 2 53 43 1 0 0 0 +0 0 +0 2 NaN NaN 00.5954 00.0000 00.0000 1 NaN NaN
03 2 54 6 0 1 2 1 -1 0 +1 2 NaN NaN 00.5319 00.0000 00.0000 0 NaN NaN
03 2 55 46 0 1 2 1 +1 0 -1 2 NaN NaN 00.5516 00.0000 00.0000 0 NaN NaN
03 2 56 13 0 1 2 3 +1 1 +1 1 2 1 01.4350 00.5103 00.3600 1 1 0
03 2 57 36 1 0 0 0 +0 0 +0 2 NaN NaN 00.5943 00.0000 00.0000 1 NaN NaN
03 2 58 32 0 1 1 1 -1 0 +1 2 NaN NaN 00.5467 00.0000 00.0000 0 NaN NaN
03 2 59 18 0 1 1 4 +1 0 -1 2 NaN NaN 00.4692 00.0000 00.0000 0 NaN NaN
03 2 60 42 0 1 2 1 +1 0 +1 2 NaN NaN 02.0601 00.0000 00.0000 0 NaN NaN
03 2 61 28 0 1 1 1 +1 0 -1 2 NaN NaN 01.0078 00.0000 00.0000 0 NaN NaN
03 2 62 32 0 1 1 4 -1 1 -1 2 NaN NaN 00.9276 00.0000 00.0000 0 NaN NaN
03 2 63 8 0 1 1 1 -1 0 +1 2 NaN NaN 00.6107 00.0000 00.0000 0 NaN NaN
03 2 64 28 0 1 1 1 +1 1 -1 1 1 1 00.8025 00.2883 00.9791 1 1 0
03 2 65 7 0 1 2 3 +1 0 -1 2 NaN NaN 00.6127 00.0000 00.0000 0 NaN NaN
03 2 66 44 0 1 2 1 +1 1 -1 2 NaN NaN 02.1172 00.0000 00.0000 0 NaN NaN
03 2 67 8 0 1 2 1 -1 1 -1 2 NaN NaN 00.9347 00.0000 00.0000 0 NaN NaN
03 2 68 6 0 1 2 1 -1 1 +1 2 NaN NaN 00.9701 00.0000 00.0000 0 NaN NaN
03 2 69 3 0 1 1 4 -1 0 -1 2 NaN NaN 00.9557 00.0000 00.0000 0 NaN NaN
03 2 70 27 0 1 2 4 +1 0 +1 2 NaN NaN 02.0303 00.0000 00.0000 0 NaN NaN
03 2 71 37 1 0 0 0 +0 0 +0 2 NaN NaN 00.8514 00.0000 00.0000 1 NaN NaN
03 2 72 34 0 1 1 3 -1 0 -1 2 NaN NaN 00.7135 00.0000 00.0000 0 NaN NaN
03 2 73 42 0 1 2 4 +1 1 -1 1 2 2 00.8531 00.2568 01.0775 1 1 1
03 2 74 19 1 0 0 0 +0 0 +0 2 NaN NaN 00.5298 00.0000 00.0000 1 NaN NaN
03 2 75 11 0 1 1 3 -1 1 +1 2 NaN NaN 00.6290 00.0000 00.0000 0 NaN NaN
03 2 76 26 1 0 0 0 +0 0 +0 2 NaN NaN 01.1248 00.0000 00.0000 1 NaN NaN
03 2 77 23 0 1 1 4 -1 0 +1 1 1 1 00.7196 00.3529 00.1936 1 1 1
03 2 78 29 0 1 2 4 +1 1 +1 2 NaN NaN 03.6348 00.0000 00.0000 0 NaN NaN
03 2 79 41 0 1 2 1 -1 0 -1 2 NaN NaN 00.5640 00.0000 00.0000 0 NaN NaN
03 2 80 26 1 0 0 0 +0 0 +0 2 NaN NaN 00.5826 00.0000 00.0000 1 NaN NaN
03 3 01 28 0 1 1 1 +1 1 -1 1 1 1 00.9118 01.5608 01.3497 1 1 0
03 3 02 27 0 1 2 4 +1 0 +1 2 NaN NaN 00.5508 00.0000 00.0000 0 NaN NaN
03 3 03 6 0 1 2 1 -1 1 +1 2 NaN NaN 00.7300 00.0000 00.0000 0 NaN NaN
03 3 04 35 0 1 1 1 +1 0 -1 2 NaN NaN 00.5169 00.0000 00.0000 0 NaN NaN
03 3 05 37 0 1 1 3 +1 0 +1 2 NaN NaN 00.5056 00.0000 00.0000 0 NaN NaN
03 3 06 5 0 1 2 4 -1 1 -1 2 NaN NaN 00.4629 00.0000 00.0000 0 NaN NaN
03 3 07 45 0 1 2 1 -1 1 -1 2 NaN NaN 00.3891 00.0000 00.0000 0 NaN NaN
03 3 08 8 0 1 1 1 -1 0 +1 2 NaN NaN 00.4466 00.0000 00.0000 0 NaN NaN
03 3 09 9 0 1 2 3 +1 0 +1 2 NaN NaN 00.3733 00.0000 00.0000 0 NaN NaN
03 3 10 42 0 1 2 1 +1 0 +1 2 NaN NaN 00.4157 00.0000 00.0000 0 NaN NaN
03 3 11 24 0 1 1 1 -1 1 -1 2 NaN NaN 00.4558 00.0000 00.0000 0 NaN NaN
03 3 12 21 0 1 2 1 -1 0 +1 2 NaN NaN 00.4147 00.0000 00.0000 0 NaN NaN
03 3 13 29 0 1 2 3 -1 0 -1 2 NaN NaN 00.5034 00.0000 00.0000 0 NaN NaN
03 3 14 11 0 1 2 1 +1 0 -1 2 NaN NaN 00.3807 00.0000 00.0000 0 NaN NaN
03 3 15 40 0 1 2 4 +1 0 -1 2 NaN NaN 00.4391 00.0000 00.0000 0 NaN NaN
03 3 16 46 0 1 1 1 -1 1 -1 1 2 2 00.6392 00.4519 00.4485 1 0 0
03 3 17 12 0 1 1 4 +1 1 -1 1 2 2 01.1273 00.3752 00.2630 1 0 1
03 3 18 41 1 0 0 0 +0 0 +0 2 NaN NaN 01.8940 00.0000 00.0000 1 NaN NaN
03 3 19 48 0 1 2 1 -1 1 +1 2 NaN NaN 00.4167 00.0000 00.0000 0 NaN NaN
03 3 20 32 0 1 1 4 -1 1 -1 2 NaN NaN 00.8097 00.0000 00.0000 0 NaN NaN
03 3 21 15 0 1 2 1 -1 0 -1 2 NaN NaN 00.4338 00.0000 00.0000 0 NaN NaN
03 3 22 41 0 1 2 1 -1 0 -1 2 NaN NaN 00.5052 00.0000 00.0000 0 NaN NaN
03 3 23 13 0 1 2 3 +1 1 +1 1 1 1 00.8305 00.1215 00.1627 1 0 0
03 3 24 43 1 0 0 0 +0 0 +0 2 NaN NaN 00.5028 00.0000 00.0000 1 NaN NaN
03 3 25 2 0 1 2 4 -1 0 -1 2 NaN NaN 00.5394 00.0000 00.0000 0 NaN NaN
03 3 26 44 0 1 2 1 +1 1 -1 2 NaN NaN 00.5265 00.0000 00.0000 0 NaN NaN
03 3 27 30 0 1 1 1 -1 1 +1 2 NaN NaN 01.0585 00.0000 00.0000 0 NaN NaN
03 3 28 34 0 1 1 3 -1 0 -1 2 NaN NaN 00.4962 00.0000 00.0000 0 NaN NaN
03 3 29 11 0 1 1 3 -1 1 +1 2 NaN NaN 00.4209 00.0000 00.0000 0 NaN NaN
03 3 30 29 0 1 2 4 +1 1 +1 2 NaN NaN 00.4771 00.0000 00.0000 0 NaN NaN
03 3 31 28 0 1 1 1 +1 0 -1 2 NaN NaN 00.4670 00.0000 00.0000 0 NaN NaN
03 3 32 20 0 1 2 1 +1 1 +1 2 NaN NaN 00.7299 00.0000 00.0000 0 NaN NaN
03 3 33 3 0 1 1 4 -1 0 -1 2 NaN NaN 00.4528 00.0000 00.0000 0 NaN NaN
03 3 34 22 0 1 2 3 -1 0 +1 2 NaN NaN 00.4597 00.0000 00.0000 0 NaN NaN
03 3 35 47 0 1 1 1 +1 1 -1 2 NaN NaN 00.4501 00.0000 00.0000 0 NaN NaN
03 3 36 48 0 1 1 1 -1 0 -1 1 1 1 00.7298 00.3138 00.1556 1 1 1
03 3 37 22 1 0 0 0 +0 0 +0 2 NaN NaN 00.5277 00.0000 00.0000 1 NaN NaN
03 3 38 25 0 1 1 3 +1 1 -1 2 NaN NaN 00.4831 00.0000 00.0000 0 NaN NaN
03 3 39 24 0 1 1 1 -1 0 -1 2 NaN NaN 00.4245 00.0000 00.0000 0 NaN NaN
03 3 40 1 0 1 2 3 +1 1 -1 2 NaN NaN 00.5772 00.0000 00.0000 0 NaN NaN
03 3 41 21 0 1 1 3 -1 1 -1 1 2 1 00.8831 00.3175 00.2715 1 0 1
03 3 42 7 0 1 2 3 +1 0 -1 2 NaN NaN 00.6540 00.0000 00.0000 0 NaN NaN
03 3 43 43 0 1 1 1 +1 1 +1 2 NaN NaN 00.6043 00.0000 00.0000 0 NaN NaN
03 3 44 36 1 0 0 0 +0 0 +0 2 NaN NaN 00.4615 00.0000 00.0000 1 NaN NaN
03 3 45 14 0 1 1 4 +1 1 +1 2 NaN NaN 00.5322 00.0000 00.0000 0 NaN NaN
03 3 46 19 0 1 1 1 -1 1 +1 2 NaN NaN 02.2636 00.0000 00.0000 0 NaN NaN
03 3 47 37 1 0 0 0 +0 0 +0 2 NaN NaN 00.8187 00.0000 00.0000 1 NaN NaN
03 3 48 42 0 1 2 4 +1 1 -1 1 2 1 00.7789 00.2494 00.0623 1 1 0
03 3 49 30 1 0 0 0 +0 0 +0 2 NaN NaN 00.8692 00.0000 00.0000 1 NaN NaN
03 3 50 38 0 1 2 4 -1 1 +1 1 1 1 00.7945 00.5834 00.1583 1 0 1
03 3 51 26 1 0 0 0 +0 0 +0 2 NaN NaN 00.6410 00.0000 00.0000 1 NaN NaN
03 3 52 19 1 0 0 0 +0 0 +0 2 NaN NaN 00.5919 00.0000 00.0000 1 NaN NaN
03 3 53 4 0 1 2 1 +1 1 -1 2 NaN NaN 00.4164 00.0000 00.0000 0 NaN NaN
03 3 54 31 0 1 1 3 -1 0 +1 2 NaN NaN 00.5373 00.0000 00.0000 0 NaN NaN
03 3 55 47 0 1 1 3 +1 0 -1 2 NaN NaN 00.4933 00.0000 00.0000 0 NaN NaN
03 3 56 18 0 1 1 4 +1 0 -1 2 NaN NaN 00.8659 00.0000 00.0000 0 NaN NaN
03 3 57 6 0 1 2 1 -1 0 +1 2 NaN NaN 00.4713 00.0000 00.0000 0 NaN NaN
03 3 58 38 1 0 0 0 +0 0 +0 2 NaN NaN 00.6220 00.0000 00.0000 1 NaN NaN
03 3 59 8 0 1 2 1 -1 1 -1 2 NaN NaN 00.6540 00.0000 00.0000 0 NaN NaN
03 3 60 26 1 0 0 0 +0 0 +0 1 2 2 00.7329 00.1255 00.4712 0 0 0
03 3 61 39 1 0 0 0 +0 0 +0 2 NaN NaN 00.5093 00.0000 00.0000 1 NaN NaN
03 3 62 35 1 0 0 0 +0 0 +0 2 NaN NaN 00.5133 00.0000 00.0000 1 NaN NaN
03 3 63 40 0 1 1 4 -1 1 +1 1 1 1 02.4058 00.5286 00.4736 1 1 1
03 3 64 17 0 1 1 1 +1 0 +1 2 NaN NaN 00.4638 00.0000 00.0000 0 NaN NaN
03 3 65 2 1 0 0 0 +0 0 +0 2 NaN NaN 03.6544 00.0000 00.0000 1 NaN NaN
03 3 66 23 0 1 1 4 -1 0 +1 1 1 1 00.6791 00.2657 00.1419 1 1 1
03 3 67 18 0 1 1 1 +1 1 +1 2 NaN NaN 00.6258 00.0000 00.0000 0 NaN NaN
03 3 68 34 0 1 1 3 +1 1 +1 2 NaN NaN 00.5776 00.0000 00.0000 0 NaN NaN
03 3 69 10 1 0 0 0 +0 0 +0 2 NaN NaN 00.4188 00.0000 00.0000 1 NaN NaN
03 3 70 33 0 1 2 3 -1 1 -1 2 NaN NaN 00.4116 00.0000 00.0000 0 NaN NaN
03 3 71 31 0 1 2 1 +1 1 +1 2 NaN NaN 00.6278 00.0000 00.0000 0 NaN NaN
03 3 72 32 0 1 1 1 -1 0 +1 2 NaN NaN 00.4669 00.0000 00.0000 0 NaN NaN
03 3 73 14 0 1 1 1 +1 0 +1 2 NaN NaN 00.5377 00.0000 00.0000 0 NaN NaN
03 3 74 16 0 1 1 4 +1 0 +1 2 NaN NaN 00.3330 00.0000 00.0000 0 NaN NaN
03 3 75 25 0 1 2 4 -1 0 +1 2 NaN NaN 00.4887 00.0000 00.0000 0 NaN NaN
03 3 76 44 1 0 0 0 +0 0 +0 2 NaN NaN 00.4140 00.0000 00.0000 1 NaN NaN
03 3 77 39 0 1 2 3 -1 1 +1 1 2 2 00.9349 00.2070 00.4540 1 1 0
03 3 78 46 0 1 2 1 +1 0 -1 2 NaN NaN 00.6695 00.0000 00.0000 0 NaN NaN
03 3 79 3 1 0 0 0 +0 0 +0 2 NaN NaN 01.2918 00.0000 00.0000 1 NaN NaN
03 3 80 33 0 1 2 1 +1 0 +1 2 NaN NaN 00.4799 00.0000 00.0000 0 NaN NaN
03 4 01 14 0 1 1 1 +1 0 +1 2 NaN NaN 00.6372 00.0000 00.0000 0 NaN NaN
03 4 02 15 0 1 2 1 -1 0 -1 2 NaN NaN 00.7650 00.0000 00.0000 0 NaN NaN
03 4 03 38 0 1 2 4 -1 1 +1 1 1 1 01.0624 02.3291 00.4226 1 0 1
03 4 04 9 0 1 2 3 +1 0 +1 2 NaN NaN 00.5593 00.0000 00.0000 0 NaN NaN
03 4 05 46 0 1 1 1 -1 1 -1 1 1 1 00.8653 00.2202 00.1780 1 1 1
03 4 06 11 0 1 1 3 -1 1 +1 2 NaN NaN 00.4364 00.0000 00.0000 0 NaN NaN
03 4 07 35 0 1 1 1 +1 0 -1 2 NaN NaN 00.5399 00.0000 00.0000 0 NaN NaN
03 4 08 41 1 0 0 0 +0 0 +0 2 NaN NaN 01.8072 00.0000 00.0000 1 NaN NaN
03 4 09 25 0 1 1 3 +1 1 -1 2 NaN NaN 03.1499 00.0000 00.0000 0 NaN NaN
03 4 10 39 1 0 0 0 +0 0 +0 2 NaN NaN 00.5636 00.0000 00.0000 1 NaN NaN
03 4 11 3 1 0 0 0 +0 0 +0 2 NaN NaN 00.6615 00.0000 00.0000 1 NaN NaN
03 4 12 28 0 1 1 1 +1 1 -1 1 1 1 00.9631 01.9778 00.4541 1 1 0
03 4 13 21 0 1 1 3 -1 1 -1 1 1 1 01.0375 00.2096 00.0876 1 1 1
03 4 14 26 1 0 0 0 +0 0 +0 2 NaN NaN 00.7500 00.0000 00.0000 1 NaN NaN
03 4 15 4 0 1 2 1 +1 1 -1 2 NaN NaN 00.5528 00.0000 00.0000 0 NaN NaN
03 4 16 47 0 1 1 3 +1 0 -1 2 NaN NaN 00.5560 00.0000 00.0000 0 NaN NaN
03 4 17 18 0 1 1 1 +1 1 +1 2 NaN NaN 00.8947 00.0000 00.0000 0 NaN NaN
03 4 18 6 0 1 2 1 -1 0 +1 2 NaN NaN 00.8352 00.0000 00.0000 0 NaN NaN
03 4 19 19 0 1 1 1 -1 1 +1 2 NaN NaN 00.6186 00.0000 00.0000 0 NaN NaN
03 4 20 37 1 0 0 0 +0 0 +0 2 NaN NaN 00.5225 00.0000 00.0000 1 NaN NaN
03 4 21 20 0 1 2 1 +1 1 +1 2 NaN NaN 01.2144 00.0000 00.0000 0 NaN NaN
03 4 22 47 0 1 1 1 +1 1 -1 2 NaN NaN 00.4691 00.0000 00.0000 0 NaN NaN
03 4 23 29 0 1 2 3 -1 0 -1 2 NaN NaN 00.5077 00.0000 00.0000 0 NaN NaN
03 4 24 3 0 1 1 4 -1 0 -1 2 NaN NaN 00.6244 00.0000 00.0000 0 NaN NaN
03 4 25 19 1 0 0 0 +0 0 +0 2 NaN NaN 00.4323 00.0000 00.0000 1 NaN NaN
03 4 26 42 0 1 2 4 +1 1 -1 1 2 2 00.7917 00.2461 00.3791 1 1 1
03 4 27 32 0 1 1 4 -1 1 -1 2 NaN NaN 00.5806 00.0000 00.0000 0 NaN NaN
03 4 28 30 0 1 1 1 -1 1 +1 2 NaN NaN 00.4698 00.0000 00.0000 0 NaN NaN
03 4 29 38 1 0 0 0 +0 0 +0 2 NaN NaN 00.4604 00.0000 00.0000 1 NaN NaN
03 4 30 8 0 1 2 1 -1 1 -1 2 NaN NaN 00.4827 00.0000 00.0000 0 NaN NaN
03 4 31 7 0 1 2 3 +1 0 -1 2 NaN NaN 00.3920 00.0000 00.0000 0 NaN NaN
03 4 32 33 0 1 2 1 +1 0 +1 2 NaN NaN 00.3696 00.0000 00.0000 0 NaN NaN
03 4 33 24 0 1 1 1 -1 1 -1 2 NaN NaN 00.4765 00.0000 00.0000 0 NaN NaN
03 4 34 43 0 1 1 1 +1 1 +1 2 NaN NaN 00.3699 00.0000 00.0000 0 NaN NaN
03 4 35 43 1 0 0 0 +0 0 +0 2 NaN NaN 00.3968 00.0000 00.0000 1 NaN NaN
03 4 36 10 1 0 0 0 +0 0 +0 2 NaN NaN 00.4057 00.0000 00.0000 1 NaN NaN
03 4 37 45 0 1 2 1 -1 1 -1 2 NaN NaN 00.3667 00.0000 00.0000 0 NaN NaN
03 4 38 12 0 1 1 4 +1 1 -1 2 NaN NaN 00.4249 00.0000 00.0000 0 NaN NaN
03 4 39 48 0 1 2 1 -1 1 +1 2 NaN NaN 00.5930 00.0000 00.0000 0 NaN NaN
03 4 40 18 0 1 1 4 +1 0 -1 2 NaN NaN 00.6576 00.0000 00.0000 0 NaN NaN
03 4 41 27 0 1 2 4 +1 0 +1 2 NaN NaN 00.3838 00.0000 00.0000 0 NaN NaN
03 4 42 37 0 1 1 3 +1 0 +1 2 NaN NaN 00.3615 00.0000 00.0000 0 NaN NaN
03 4 43 2 1 0 0 0 +0 0 +0 2 NaN NaN 00.4678 00.0000 00.0000 1 NaN NaN
03 4 44 32 0 1 1 1 -1 0 +1 2 NaN NaN 00.4259 00.0000 00.0000 0 NaN NaN
03 4 45 16 0 1 1 4 +1 0 +1 2 NaN NaN 00.4499 00.0000 00.0000 0 NaN NaN
03 4 46 11 0 1 2 1 +1 0 -1 2 NaN NaN 00.4087 00.0000 00.0000 0 NaN NaN
03 4 47 26 1 0 0 0 +0 0 +0 2 NaN NaN 00.6736 00.0000 00.0000 1 NaN NaN
03 4 48 28 0 1 1 1 +1 0 -1 2 NaN NaN 00.3993 00.0000 00.0000 0 NaN NaN
03 4 49 2 0 1 2 4 -1 0 -1 2 NaN NaN 00.3922 00.0000 00.0000 0 NaN NaN
03 4 50 24 0 1 1 1 -1 0 -1 2 NaN NaN 00.4017 00.0000 00.0000 0 NaN NaN
03 4 51 34 0 1 1 3 -1 0 -1 2 NaN NaN 00.4107 00.0000 00.0000 0 NaN NaN
03 4 52 8 0 1 1 1 -1 0 +1 2 NaN NaN 00.4988 00.0000 00.0000 0 NaN NaN
03 4 53 5 0 1 2 4 -1 1 -1 2 NaN NaN 00.4235 00.0000 00.0000 0 NaN NaN
03 4 54 13 0 1 2 3 +1 1 +1 1 2 2 00.6556 00.3077 00.1505 1 1 1
03 4 55 17 0 1 1 1 +1 0 +1 2 NaN NaN 00.4264 00.0000 00.0000 0 NaN NaN
03 4 56 39 0 1 2 3 -1 1 +1 1 2 2 00.7066 00.2125 00.1228 1 1 0
03 4 57 21 0 1 2 1 -1 0 +1 2 NaN NaN 00.4795 00.0000 00.0000 0 NaN NaN
03 4 58 46 0 1 2 1 +1 0 -1 2 NaN NaN 00.3570 00.0000 00.0000 0 NaN NaN
03 4 59 42 0 1 2 1 +1 0 +1 2 NaN NaN 00.3839 00.0000 00.0000 0 NaN NaN
03 4 60 33 0 1 2 3 -1 1 -1 2 NaN NaN 00.7295 00.0000 00.0000 0 NaN NaN
03 4 61 40 0 1 2 4 +1 0 -1 2 NaN NaN 00.4529 00.0000 00.0000 0 NaN NaN
03 4 62 30 1 0 0 0 +0 0 +0 2 NaN NaN 00.5878 00.0000 00.0000 1 NaN NaN
03 4 63 48 0 1 1 1 -1 0 -1 1 2 2 00.8291 00.4093 00.1513 1 0 0
03 4 64 31 0 1 1 3 -1 0 +1 2 NaN NaN 00.5865 00.0000 00.0000 0 NaN NaN
03 4 65 35 1 0 0 0 +0 0 +0 2 NaN NaN 00.4278 00.0000 00.0000 1 NaN NaN
03 4 66 1 0 1 2 3 +1 1 -1 2 NaN NaN 00.4673 00.0000 00.0000 0 NaN NaN
03 4 67 36 1 0 0 0 +0 0 +0 2 NaN NaN 00.4100 00.0000 00.0000 1 NaN NaN
03 4 68 41 0 1 2 1 -1 0 -1 2 NaN NaN 00.4501 00.0000 00.0000 0 NaN NaN
03 4 69 31 0 1 2 1 +1 1 +1 2 NaN NaN 01.0169 00.0000 00.0000 0 NaN NaN
03 4 70 29 0 1 2 4 +1 1 +1 2 NaN NaN 00.6005 00.0000 00.0000 0 NaN NaN
03 4 71 44 0 1 2 1 +1 1 -1 2 NaN NaN 00.5211 00.0000 00.0000 0 NaN NaN
03 4 72 6 0 1 2 1 -1 1 +1 2 NaN NaN 00.9252 00.0000 00.0000 0 NaN NaN
03 4 73 44 1 0 0 0 +0 0 +0 2 NaN NaN 00.4164 00.0000 00.0000 1 NaN NaN
03 4 74 34 0 1 1 3 +1 1 +1 2 NaN NaN 00.4892 00.0000 00.0000 0 NaN NaN
03 4 75 22 1 0 0 0 +0 0 +0 2 NaN NaN 00.5747 00.0000 00.0000 1 NaN NaN
03 4 76 14 0 1 1 4 +1 1 +1 2 NaN NaN 00.4011 00.0000 00.0000 0 NaN NaN
03 4 77 22 0 1 2 3 -1 0 +1 2 NaN NaN 00.4107 00.0000 00.0000 0 NaN NaN
03 4 78 25 0 1 2 4 -1 0 +1 2 NaN NaN 00.7236 00.0000 00.0000 0 NaN NaN
03 4 79 23 0 1 1 4 -1 0 +1 1 1 2 00.6719 00.5313 00.3963 1 1 0
03 4 80 40 0 1 1 4 -1 1 +1 1 1 1 00.8531 00.1769 00.1205 1 1 1
03 5 01 41 1 0 0 0 +0 0 +0 2 NaN NaN 02.9938 00.0000 00.0000 1 NaN NaN
03 5 02 48 0 1 1 1 -1 0 -1 1 1 1 00.5264 00.3913 00.1498 1 1 1
03 5 03 44 0 1 2 1 +1 1 -1 2 NaN NaN 00.5059 00.0000 00.0000 0 NaN NaN
03 5 04 36 1 0 0 0 +0 0 +0 2 NaN NaN 00.5106 00.0000 00.0000 1 NaN NaN
03 5 05 27 0 1 2 4 +1 0 +1 2 NaN NaN 00.3712 00.0000 00.0000 0 NaN NaN
03 5 06 5 0 1 2 4 -1 1 -1 2 NaN NaN 00.3815 00.0000 00.0000 0 NaN NaN
03 5 07 17 0 1 1 1 +1 0 +1 2 NaN NaN 00.4232 00.0000 00.0000 0 NaN NaN
03 5 08 39 0 1 2 3 -1 1 +1 1 2 2 00.7672 00.2545 00.4192 1 1 0
03 5 09 8 0 1 2 1 -1 1 -1 2 NaN NaN 00.4440 00.0000 00.0000 0 NaN NaN
03 5 10 6 0 1 2 1 -1 1 +1 2 NaN NaN 00.4828 00.0000 00.0000 0 NaN NaN
03 5 11 42 0 1 2 4 +1 1 -1 1 2 2 00.7603 00.2153 00.1896 1 1 1
03 5 12 23 0 1 1 4 -1 0 +1 1 1 2 00.7197 00.3208 00.3547 1 1 0
03 5 13 28 0 1 1 1 +1 0 -1 2 NaN NaN 00.5737 00.0000 00.0000 0 NaN NaN
03 5 14 21 0 1 1 3 -1 1 -1 1 2 2 00.8318 00.2200 00.2420 1 0 0
03 5 15 37 1 0 0 0 +0 0 +0 2 NaN NaN 00.6101 00.0000 00.0000 1 NaN NaN
03 5 16 7 0 1 2 3 +1 0 -1 2 NaN NaN 00.4345 00.0000 00.0000 0 NaN NaN
03 5 17 32 0 1 1 4 -1 1 -1 2 NaN NaN 01.6906 00.0000 00.0000 0 NaN NaN
03 5 18 35 0 1 1 1 +1 0 -1 2 NaN NaN 00.6217 00.0000 00.0000 0 NaN NaN
03 5 19 6 0 1 2 1 -1 0 +1 2 NaN NaN 00.4942 00.0000 00.0000 0 NaN NaN
03 5 20 46 0 1 1 1 -1 1 -1 1 2 1 00.7871 00.2575 00.3743 1 0 1
03 5 21 14 0 1 1 1 +1 0 +1 2 NaN NaN 00.5605 00.0000 00.0000 0 NaN NaN
03 5 22 33 0 1 2 1 +1 0 +1 2 NaN NaN 00.4025 00.0000 00.0000 0 NaN NaN
03 5 23 31 0 1 2 1 +1 1 +1 2 NaN NaN 00.4598 00.0000 00.0000 0 NaN NaN
03 5 24 33 0 1 2 3 -1 1 -1 2 NaN NaN 00.4340 00.0000 00.0000 0 NaN NaN
03 5 25 28 0 1 1 1 +1 1 -1 1 2 1 01.2422 00.5178 01.0395 1 0 0
03 5 26 1 0 1 2 3 +1 1 -1 2 NaN NaN 00.4304 00.0000 00.0000 0 NaN NaN
03 5 27 26 1 0 0 0 +0 0 +0 2 NaN NaN 00.5020 00.0000 00.0000 1 NaN NaN
03 5 28 38 1 0 0 0 +0 0 +0 2 NaN NaN 00.4907 00.0000 00.0000 1 NaN NaN
03 5 29 43 1 0 0 0 +0 0 +0 2 NaN NaN 00.4320 00.0000 00.0000 1 NaN NaN
03 5 30 4 0 1 2 1 +1 1 -1 2 NaN NaN 00.4560 00.0000 00.0000 0 NaN NaN
03 5 31 19 1 0 0 0 +0 0 +0 2 NaN NaN 00.5596 00.0000 00.0000 1 NaN NaN
03 5 32 46 0 1 2 1 +1 0 -1 2 NaN NaN 00.3855 00.0000 00.0000 0 NaN NaN
03 5 33 9 0 1 2 3 +1 0 +1 2 NaN NaN 00.3956 00.0000 00.0000 0 NaN NaN
03 5 34 29 0 1 2 3 -1 0 -1 2 NaN NaN 00.4367 00.0000 00.0000 0 NaN NaN
03 5 35 16 0 1 1 4 +1 0 +1 2 NaN NaN 00.4607 00.0000 00.0000 0 NaN NaN
03 5 36 44 1 0 0 0 +0 0 +0 2 NaN NaN 00.3556 00.0000 00.0000 1 NaN NaN
03 5 37 3 0 1 1 4 -1 0 -1 2 NaN NaN 00.5592 00.0000 00.0000 0 NaN NaN
03 5 38 10 1 0 0 0 +0 0 +0 2 NaN NaN 00.7217 00.0000 00.0000 1 NaN NaN
03 5 39 34 0 1 1 3 -1 0 -1 2 NaN NaN 00.5255 00.0000 00.0000 0 NaN NaN
03 5 40 2 1 0 0 0 +0 0 +0 2 NaN NaN 00.4174 00.0000 00.0000 1 NaN NaN
03 5 41 31 0 1 1 3 -1 0 +1 2 NaN NaN 00.4421 00.0000 00.0000 0 NaN NaN
03 5 42 47 0 1 1 1 +1 1 -1 2 NaN NaN 00.4491 00.0000 00.0000 0 NaN NaN
03 5 43 21 0 1 2 1 -1 0 +1 2 NaN NaN 00.3926 00.0000 00.0000 0 NaN NaN
03 5 44 30 1 0 0 0 +0 0 +0 2 NaN NaN 00.3381 00.0000 00.0000 1 NaN NaN
03 5 45 41 0 1 2 1 -1 0 -1 2 NaN NaN 00.4944 00.0000 00.0000 0 NaN NaN
03 5 46 20 0 1 2 1 +1 1 +1 2 NaN NaN 00.4831 00.0000 00.0000 0 NaN NaN
03 5 47 25 0 1 2 4 -1 0 +1 2 NaN NaN 00.4886 00.0000 00.0000 0 NaN NaN
03 5 48 25 0 1 1 3 +1 1 -1 2 NaN NaN 00.4940 00.0000 00.0000 0 NaN NaN
03 5 49 35 1 0 0 0 +0 0 +0 2 NaN NaN 00.5945 00.0000 00.0000 1 NaN NaN
03 5 50 14 0 1 1 4 +1 1 +1 2 NaN NaN 00.9950 00.0000 00.0000 0 NaN NaN
03 5 51 40 0 1 1 4 -1 1 +1 1 1 1 00.7067 00.4206 00.1786 1 1 1
03 5 52 43 0 1 1 1 +1 1 +1 2 NaN NaN 00.7245 00.0000 00.0000 0 NaN NaN
03 5 53 34 0 1 1 3 +1 1 +1 2 NaN NaN 00.4801 00.0000 00.0000 0 NaN NaN
03 5 54 18 0 1 1 1 +1 1 +1 2 NaN NaN 00.6454 00.0000 00.0000 0 NaN NaN
03 5 55 29 0 1 2 4 +1 1 +1 2 NaN NaN 00.4839 00.0000 00.0000 0 NaN NaN
03 5 56 12 0 1 1 4 +1 1 -1 1 2 1 00.7932 00.2150 00.3492 1 0 0
03 5 57 11 0 1 2 1 +1 0 -1 2 NaN NaN 00.5202 00.0000 00.0000 0 NaN NaN
03 5 58 8 0 1 1 1 -1 0 +1 2 NaN NaN 00.4602 00.0000 00.0000 0 NaN NaN
03 5 59 15 0 1 2 1 -1 0 -1 1 2 1 00.8829 00.1091 00.1195 1 1 1
03 5 60 48 0 1 2 1 -1 1 +1 2 NaN NaN 00.7964 00.0000 00.0000 0 NaN NaN
03 5 61 30 0 1 1 1 -1 1 +1 2 NaN NaN 00.5651 00.0000 00.0000 0 NaN NaN
03 5 62 32 0 1 1 1 -1 0 +1 2 NaN NaN 00.5517 00.0000 00.0000 0 NaN NaN
03 5 63 37 0 1 1 3 +1 0 +1 2 NaN NaN 00.4904 00.0000 00.0000 0 NaN NaN
03 5 64 13 0 1 2 3 +1 1 +1 2 NaN NaN 00.3838 00.0000 00.0000 0 NaN NaN
03 5 65 38 0 1 2 4 -1 1 +1 1 1 2 01.1612 00.1998 00.1426 1 0 0
03 5 66 18 0 1 1 4 +1 0 -1 2 NaN NaN 00.4980 00.0000 00.0000 0 NaN NaN
03 5 67 24 0 1 1 1 -1 1 -1 2 NaN NaN 00.6785 00.0000 00.0000 0 NaN NaN
03 5 68 40 0 1 2 4 +1 0 -1 2 NaN NaN 00.3875 00.0000 00.0000 0 NaN NaN
03 5 69 3 1 0 0 0 +0 0 +0 2 NaN NaN 00.5731 00.0000 00.0000 1 NaN NaN
03 5 70 47 0 1 1 3 +1 0 -1 2 NaN NaN 00.3990 00.0000 00.0000 0 NaN NaN
03 5 71 22 0 1 2 3 -1 0 +1 2 NaN NaN 00.3918 00.0000 00.0000 0 NaN NaN
03 5 72 45 0 1 2 1 -1 1 -1 2 NaN NaN 00.3688 00.0000 00.0000 0 NaN NaN
03 5 73 24 0 1 1 1 -1 0 -1 2 NaN NaN 00.4117 00.0000 00.0000 0 NaN NaN
03 5 74 2 0 1 2 4 -1 0 -1 2 NaN NaN 00.6285 00.0000 00.0000 0 NaN NaN
03 5 75 11 0 1 1 3 -1 1 +1 2 NaN NaN 00.4356 00.0000 00.0000 0 NaN NaN
03 5 76 26 1 0 0 0 +0 0 +0 2 NaN NaN 01.1957 00.0000 00.0000 1 NaN NaN
03 5 77 22 1 0 0 0 +0 0 +0 2 NaN NaN 00.4671 00.0000 00.0000 1 NaN NaN
03 5 78 19 0 1 1 1 -1 1 +1 2 NaN NaN 00.8893 00.0000 00.0000 0 NaN NaN
03 5 79 42 0 1 2 1 +1 0 +1 2 NaN NaN 00.3659 00.0000 00.0000 0 NaN NaN
03 5 80 39 1 0 0 0 +0 0 +0 2 NaN NaN 00.3442 00.0000 00.0000 1 NaN NaN
03 6 01 32 0 1 1 4 -1 1 -1 2 NaN NaN 01.8548 00.0000 00.0000 0 NaN NaN
03 6 02 3 1 0 0 0 +0 0 +0 2 NaN NaN 00.5388 00.0000 00.0000 1 NaN NaN
03 6 03 15 0 1 2 1 -1 0 -1 1 2 1 01.0381 00.1141 00.0925 1 1 1
03 6 04 35 0 1 1 1 +1 0 -1 2 NaN NaN 00.4659 00.0000 00.0000 0 NaN NaN
03 6 05 48 0 1 2 1 -1 1 +1 2 NaN NaN 00.5040 00.0000 00.0000 0 NaN NaN
03 6 06 38 0 1 2 4 -1 1 +1 1 1 1 00.9566 00.1641 00.6844 1 0 1
03 6 07 38 1 0 0 0 +0 0 +0 2 NaN NaN 02.1535 00.0000 00.0000 1 NaN NaN
03 6 08 10 1 0 0 0 +0 0 +0 2 NaN NaN 00.6169 00.0000 00.0000 1 NaN NaN
03 6 09 6 0 1 2 1 -1 1 +1 2 NaN NaN 02.4727 00.0000 00.0000 0 NaN NaN
03 6 10 21 0 1 2 1 -1 0 +1 2 NaN NaN 00.4596 00.0000 00.0000 0 NaN NaN
03 6 11 37 1 0 0 0 +0 0 +0 2 NaN NaN 00.4496 00.0000 00.0000 1 NaN NaN
03 6 12 8 0 1 1 1 -1 0 +1 2 NaN NaN 00.4571 00.0000 00.0000 0 NaN NaN
03 6 13 43 1 0 0 0 +0 0 +0 2 NaN NaN 00.7199 00.0000 00.0000 1 NaN NaN
03 6 14 30 0 1 1 1 -1 1 +1 2 NaN NaN 00.3955 00.0000 00.0000 0 NaN NaN
03 6 15 44 1 0 0 0 +0 0 +0 2 NaN NaN 00.4844 00.0000 00.0000 1 NaN NaN
03 6 16 46 0 1 2 1 +1 0 -1 2 NaN NaN 00.5537 00.0000 00.0000 0 NaN NaN
03 6 17 14 0 1 1 4 +1 1 +1 2 NaN NaN 01.3090 00.0000 00.0000 0 NaN NaN
03 6 18 47 0 1 1 3 +1 0 -1 2 NaN NaN 00.4002 00.0000 00.0000 0 NaN NaN
03 6 19 44 0 1 2 1 +1 1 -1 2 NaN NaN 00.6011 00.0000 00.0000 0 NaN NaN
03 6 20 11 0 1 2 1 +1 0 -1 2 NaN NaN 00.8575 00.0000 00.0000 0 NaN NaN
03 6 21 26 1 0 0 0 +0 0 +0 2 NaN NaN 00.5116 00.0000 00.0000 1 NaN NaN
03 6 22 3 0 1 1 4 -1 0 -1 2 NaN NaN 00.3556 00.0000 00.0000 0 NaN NaN
03 6 23 36 1 0 0 0 +0 0 +0 2 NaN NaN 00.3346 00.0000 00.0000 1 NaN NaN
03 6 24 41 0 1 2 1 -1 0 -1 2 NaN NaN 00.3468 00.0000 00.0000 0 NaN NaN
03 6 25 27 0 1 2 4 +1 0 +1 2 NaN NaN 00.3098 00.0000 00.0000 0 NaN NaN
03 6 26 48 0 1 1 1 -1 0 -1 1 2 1 00.7062 00.3081 00.5663 1 0 1
03 6 27 11 0 1 1 3 -1 1 +1 2 NaN NaN 00.5527 00.0000 00.0000 0 NaN NaN
03 6 28 39 0 1 2 3 -1 1 +1 1 2 1 00.7800 00.0905 00.0696 1 1 1
03 6 29 13 0 1 2 3 +1 1 +1 2 NaN NaN 00.7324 00.0000 00.0000 0 NaN NaN
03 6 30 17 0 1 1 1 +1 0 +1 2 NaN NaN 00.5353 00.0000 00.0000 0 NaN NaN
03 6 31 42 0 1 2 4 +1 1 -1 1 2 1 00.9233 00.0843 00.0800 1 1 0
03 6 32 29 0 1 2 4 +1 1 +1 2 NaN NaN 00.4861 00.0000 00.0000 0 NaN NaN
03 6 33 39 1 0 0 0 +0 0 +0 2 NaN NaN 00.3955 00.0000 00.0000 1 NaN NaN
03 6 34 34 0 1 1 3 -1 0 -1 2 NaN NaN 01.1564 00.0000 00.0000 0 NaN NaN
03 6 35 6 0 1 2 1 -1 0 +1 2 NaN NaN 00.3978 00.0000 00.0000 0 NaN NaN
03 6 36 18 0 1 1 4 +1 0 -1 2 NaN NaN 00.3907 00.0000 00.0000 0 NaN NaN
03 6 37 28 0 1 1 1 +1 1 -1 2 NaN NaN 00.4163 00.0000 00.0000 0 NaN NaN
03 6 38 25 0 1 1 3 +1 1 -1 2 NaN NaN 00.7284 00.0000 00.0000 0 NaN NaN
03 6 39 14 0 1 1 1 +1 0 +1 2 NaN NaN 00.5960 00.0000 00.0000 0 NaN NaN
03 6 40 33 0 1 2 1 +1 0 +1 2 NaN NaN 02.7892 00.0000 00.0000 0 NaN NaN
03 6 41 24 0 1 1 1 -1 1 -1 2 NaN NaN 01.8348 00.0000 00.0000 0 NaN NaN
03 6 42 33 0 1 2 3 -1 1 -1 2 NaN NaN 03.8803 00.0000 00.0000 0 NaN NaN
03 6 43 40 0 1 2 4 +1 0 -1 2 NaN NaN 00.4800 00.0000 00.0000 0 NaN NaN
03 6 44 43 0 1 1 1 +1 1 +1 2 NaN NaN 00.6139 00.0000 00.0000 0 NaN NaN
03 6 45 29 0 1 2 3 -1 0 -1 2 NaN NaN 00.5337 00.0000 00.0000 0 NaN NaN
03 6 46 30 1 0 0 0 +0 0 +0 1 2 1 00.7776 00.0562 00.1014 0 0 0
03 6 47 25 0 1 2 4 -1 0 +1 2 NaN NaN 00.4595 00.0000 00.0000 0 NaN NaN
03 6 48 35 1 0 0 0 +0 0 +0 2 NaN NaN 00.5143 00.0000 00.0000 1 NaN NaN
03 6 49 5 0 1 2 4 -1 1 -1 1 2 2 00.8383 00.0980 00.5577 1 1 0
03 6 50 40 0 1 1 4 -1 1 +1 1 1 1 00.6882 00.1940 00.7300 1 1 1
03 6 51 7 0 1 2 3 +1 0 -1 2 NaN NaN 00.6294 00.0000 00.0000 0 NaN NaN
03 6 52 8 0 1 2 1 -1 1 -1 2 NaN NaN 00.7725 00.0000 00.0000 0 NaN NaN
03 6 53 1 0 1 2 3 +1 1 -1 2 NaN NaN 00.7982 00.0000 00.0000 0 NaN NaN
03 6 54 31 0 1 1 3 -1 0 +1 2 NaN NaN 01.1588 00.0000 00.0000 0 NaN NaN
03 6 55 21 0 1 1 3 -1 1 -1 1 2 1 00.7529 00.1288 00.0907 1 0 1
03 6 56 42 0 1 2 1 +1 0 +1 2 NaN NaN 00.4807 00.0000 00.0000 0 NaN NaN
03 6 57 45 0 1 2 1 -1 1 -1 2 NaN NaN 00.3741 00.0000 00.0000 0 NaN NaN
03 6 58 4 0 1 2 1 +1 1 -1 2 NaN NaN 00.3523 00.0000 00.0000 0 NaN NaN
03 6 59 22 1 0 0 0 +0 0 +0 2 NaN NaN 00.4279 00.0000 00.0000 1 NaN NaN
03 6 60 12 0 1 1 4 +1 1 -1 2 NaN NaN 00.3875 00.0000 00.0000 0 NaN NaN
03 6 61 34 0 1 1 3 +1 1 +1 2 NaN NaN 00.5897 00.0000 00.0000 0 NaN NaN
03 6 62 2 1 0 0 0 +0 0 +0 2 NaN NaN 00.7509 00.0000 00.0000 1 NaN NaN
03 6 63 22 0 1 2 3 -1 0 +1 2 NaN NaN 00.4737 00.0000 00.0000 0 NaN NaN
03 6 64 24 0 1 1 1 -1 0 -1 2 NaN NaN 00.4959 00.0000 00.0000 0 NaN NaN
03 6 65 16 0 1 1 4 +1 0 +1 2 NaN NaN 00.5966 00.0000 00.0000 0 NaN NaN
03 6 66 31 0 1 2 1 +1 1 +1 2 NaN NaN 00.7410 00.0000 00.0000 0 NaN NaN
03 6 67 23 0 1 1 4 -1 0 +1 1 2 2 00.7199 00.4493 01.3097 1 0 0
03 6 68 41 1 0 0 0 +0 0 +0 2 NaN NaN 00.4807 00.0000 00.0000 1 NaN NaN
03 6 69 26 1 0 0 0 +0 0 +0 2 NaN NaN 00.4708 00.0000 00.0000 1 NaN NaN
03 6 70 18 0 1 1 1 +1 1 +1 2 NaN NaN 00.3655 00.0000 00.0000 0 NaN NaN
03 6 71 2 0 1 2 4 -1 0 -1 2 NaN NaN 00.5519 00.0000 00.0000 0 NaN NaN
03 6 72 19 1 0 0 0 +0 0 +0 2 NaN NaN 00.5390 00.0000 00.0000 1 NaN NaN
03 6 73 46 0 1 1 1 -1 1 -1 1 2 2 00.9585 00.1332 00.3669 1 0 0
03 6 74 20 0 1 2 1 +1 1 +1 2 NaN NaN 00.7298 00.0000 00.0000 0 NaN NaN
03 6 75 47 0 1 1 1 +1 1 -1 2 NaN NaN 00.7248 00.0000 00.0000 0 NaN NaN
03 6 76 9 0 1 2 3 +1 0 +1 2 NaN NaN 00.5764 00.0000 00.0000 0 NaN NaN
03 6 77 37 0 1 1 3 +1 0 +1 2 NaN NaN 00.4661 00.0000 00.0000 0 NaN NaN
03 6 78 19 0 1 1 1 -1 1 +1 2 NaN NaN 01.4323 00.0000 00.0000 0 NaN NaN
03 6 79 32 0 1 1 1 -1 0 +1 2 NaN NaN 00.5658 00.0000 00.0000 0 NaN NaN
03 6 80 28 0 1 1 1 +1 0 -1 2 NaN NaN 00.5676 00.0000 00.0000 0 NaN NaN
