sub block trial obj foil exp maze DP turn attend pos resp1 resp2 resp3 RT1 RT2 RT3 correct1 correct2 correct3
Subject 04 -- attend furniture
04 1 01 33 0 1 2 3 +1 0 -1 2 NaN NaN 03.1627 00.0000 00.0000 0 NaN NaN
04 1 02 21 0 1 1 1 -1 1 -1 1 1 2 02.8799 04.4226 04.2686 1 1 0
04 1 03 26 0 1 2 1 -1 0 -1 1 2 2 01.7315 02.0577 06.3235 1 1 0
04 1 04 20 1 0 0 0 +0 0 +0 2 NaN NaN 01.3483 00.0000 00.0000 1 NaN NaN
04 1 05 1 0 1 2 4 +1 0 -1 1 2 1 01.5734 05.2348 03.4309 1 1 0
04 1 06 17 1 0 0 0 +0 0 +0 2 NaN NaN 01.7451 00.0000 00.0000 1 NaN NaN
04 1 07 47 0 1 2 1 +1 0 -1 1 1 2 01.1861 02.3359 02.9094 1 0 1
04 1 08 12 0 1 2 1 +1 0 -1 1 2 2 07.1333 01.4743 01.5241 1 1 1
04 1 09 6 0 1 2 1 +1 0 +1 1 1 2 01.2468 03.4818 04.6310 1 0 1
04 1 10 21 1 0 0 0 +0 0 +0 2 NaN NaN 01.4231 00.0000 00.0000 1 NaN NaN
04 1 11 12 1 0 0 0 +0 0 +0 2 NaN NaN 01.5980 00.0000 00.0000 1 NaN NaN
04 1 12 1 0 1 1 1 -1 1 +1 1 1 1 01.2373 05.3930 05.5026 1 1 1
04 1 13 19 1 0 0 0 +0 0 +0 2 NaN NaN 03.5062 00.0000 00.0000 1 NaN NaN
04 1 14 17 1 0 0 0 +0 0 +0 2 NaN NaN 02.0571 00.0000 00.0000 1 NaN NaN
04 1 15 11 0 1 2 1 +1 0 +1 1 2 2 02.3489 02.0736 02.3863 1 1 1
04 1 16 14 0 1 2 1 +1 1 -1 1 1 1 01.9120 06.8708 01.3824 1 0 0
04 1 17 38 0 1 1 3 -1 1 +1 1 1 1 02.0385 01.9368 03.9831 1 1 1
04 1 18 35 0 1 2 4 +1 0 +1 1 2 2 02.1782 02.4701 01.8221 1 1 1
04 1 19 41 1 0 0 0 +0 0 +0 2 NaN NaN 02.7481 00.0000 00.0000 1 NaN NaN
04 1 20 43 0 1 2 1 -1 1 +1 1 1 1 01.2025 02.5595 02.2279 1 0 1
04 1 21 9 0 1 2 4 -1 0 -1 1 2 1 01.2012 02.7022 01.7083 1 1 1
04 1 22 13 0 1 1 1 -1 1 -1 1 1 2 01.4067 02.4665 02.7472 1 1 0
04 1 23 39 0 1 1 4 -1 0 +1 1 1 2 01.3462 02.5049 01.7435 1 1 0
04 1 24 42 0 1 1 1 +1 1 +1 1 1 1 02.0004 01.8358 01.3104 1 1 0
04 1 25 47 1 0 0 0 +0 0 +0 2 NaN NaN 01.6014 00.0000 00.0000 1 NaN NaN
04 1 26 10 0 1 2 4 -1 0 +1 1 1 2 01.2087 02.5815 03.9606 1 0 0
04 1 27 27 1 0 0 0 +0 0 +0 2 NaN NaN 01.2767 00.0000 00.0000 1 NaN NaN
04 1 28 15 0 1 1 4 +1 0 -1 1 1 1 01.1051 01.0585 02.0376 1 1 0
04 1 29 11 0 1 1 1 +1 1 -1 1 1 2 04.3947 02.1465 03.0316 1 1 1
04 1 30 45 1 0 0 0 +0 0 +0 1 2 2 04.6418 01.8230 01.3781 0 0 0
04 1 31 39 0 1 2 1 -1 1 -1 1 1 1 01.7783 01.5270 01.1900 1 0 1
04 1 32 13 0 1 2 1 -1 0 -1 1 1 1 01.2461 02.9849 00.9392 1 0 1
04 1 33 37 0 1 1 1 +1 0 +1 1 1 2 01.2776 04.4712 01.4192 1 1 1
04 1 34 46 0 1 1 3 +1 0 -1 1 1 1 01.0335 01.4535 03.7279 1 1 0
04 1 35 18 0 1 2 4 -1 1 -1 1 2 2 03.1497 02.0889 00.9929 1 1 0
04 1 36 5 0 1 2 3 -1 0 +1 2 NaN NaN 08.1606 00.0000 00.0000 0 NaN NaN
04 1 37 25 0 1 1 1 +1 0 -1 1 1 2 00.9645 01.1633 00.7457 1 1 1
04 1 38 38 1 0 0 0 +0 0 +0 2 NaN NaN 01.3159 00.0000 00.0000 1 NaN NaN
04 1 39 7 1 0 0 0 +0 0 +0 2 NaN NaN 02.4544 00.0000 00.0000 1 NaN NaN
04 1 40 33 0 1 1 1 +1 1 -1 1 1 1 00.8733 01.9230 03.0111 1 1 0
04 1 41 3 0 1 1 3 -1 1 -1 1 2 2 01.6790 01.1599 01.9421 1 0 0
04 1 42 8 0 1 2 3 -1 1 +1 1 2 1 01.0069 05.6521 00.7427 1 1 1
04 1 43 10 0 1 2 4 -1 1 +1 1 1 2 01.2174 01.2298 02.1373 1 0 0
04 1 44 24 1 0 0 0 +0 0 +0 2 NaN NaN 00.9382 00.0000 00.0000 1 NaN NaN
04 1 45 25 0 1 1 3 +1 1 +1 1 1 2 01.5974 01.1618 02.2162 1 1 1
04 1 46 45 0 1 1 1 +1 0 -1 1 1 1 00.8054 00.7233 01.1560 1 1 0
04 1 47 20 0 1 2 3 +1 1 +1 2 NaN NaN 05.3900 00.0000 00.0000 0 NaN NaN
04 1 48 2 1 0 0 0 +0 0 +0 1 1 2 03.7345 00.9373 00.8175 0 0 0
04 1 49 16 0 1 1 4 +1 1 -1 1 1 2 02.1214 01.0241 00.9000 1 1 1
04 1 50 42 0 1 1 1 -1 0 -1 1 2 1 01.3846 03.7419 00.3208 1 0 1
04 1 51 3 0 1 2 3 -1 0 -1 1 2 2 01.5971 02.6654 01.0648 1 1 0
04 1 52 16 1 0 0 0 +0 0 +0 2 NaN NaN 02.4378 00.0000 00.0000 1 NaN NaN
04 1 53 48 0 1 1 3 -1 0 -1 1 1 1 01.0980 01.4673 01.2612 1 1 1
04 1 54 4 0 1 2 3 +1 1 -1 1 2 1 01.6017 00.5098 03.6394 1 1 0
04 1 55 35 0 1 1 4 -1 1 +1 1 1 2 01.2734 01.3625 02.0418 1 1 0
04 1 56 40 0 1 1 4 +1 0 +1 1 1 2 00.7666 02.3340 00.6994 1 1 1
04 1 57 29 0 1 2 1 -1 1 -1 1 2 1 00.9683 01.6312 01.1779 1 1 1
04 1 58 37 0 1 1 1 +1 1 +1 1 2 2 01.1867 09.8884 00.4495 1 0 1
04 1 59 7 0 1 2 1 +1 1 +1 1 1 1 02.9368 02.2212 03.2956 1 0 0
04 1 60 34 0 1 2 1 -1 0 +1 1 2 1 00.8796 01.9777 01.8625 1 1 1
04 1 61 8 0 1 2 1 -1 0 +1 1 2 1 01.0746 03.1247 02.5931 1 1 1
04 1 62 15 0 1 2 1 +1 1 -1 1 2 2 02.0305 00.2966 01.1953 1 1 1
04 1 63 31 0 1 1 3 +1 1 -1 1 1 1 01.5867 01.0236 01.8601 1 1 0
04 1 64 23 0 1 2 1 +1 1 +1 1 2 1 01.5363 01.3114 00.5035 1 1 0
04 1 65 2 0 1 2 4 +1 1 +1 1 2 2 01.2128 01.9772 00.8055 1 1 1
04 1 66 48 0 1 1 1 -1 1 +1 1 1 1 01.3414 01.4607 01.3507 1 1 1
04 1 67 31 0 1 1 4 -1 0 -1 1 1 2 01.2082 03.6212 02.1409 1 1 0
04 1 68 41 0 1 1 1 -1 0 +1 1 1 1 01.2298 00.3614 00.6654 1 1 1
04 1 69 44 0 1 2 4 +1 1 -1 1 1 1 00.9996 00.8772 00.7915 1 0 0
04 1 70 36 0 1 1 1 -1 0 +1 1 1 1 01.0561 00.7549 03.2994 1 1 1
04 1 71 46 1 0 0 0 +0 0 +0 2 NaN NaN 02.2267 00.0000 00.0000 1 NaN NaN
04 1 72 14 0 1 1 1 -1 0 -1 2 NaN NaN 01.5194 00.0000 00.0000 0 NaN NaN
04 1 73 34 0 1 2 3 -1 1 -1 1 1 2 01.1134 02.0579 00.7706 1 0 0
04 1 74 19 0 1 1 1 +1 0 +1 1 1 2 01.0688 01.4393 01.0105 1 1 1
04 1 75 22 0 1 1 3 -1 0 +1 1 1 1 00.7381 01.9868 00.9590 1 1 1
04 1 76 4 0 1 2 3 +1 0 +1 1 2 2 01.0561 00.9630 00.4742 1 1 1
04 1 77 28 0 1 2 1 -1 1 +1 1 2 1 00.8322 02.3805 01.2080 1 1 1
04 1 78 26 0 1 1 4 -1 1 -1 1 1 2 00.9439 01.2394 01.6508 1 1 0
04 1 79 23 0 1 1 3 +1 0 +1 1 2 2 01.2561 02.3391 01.5045 1 0 1
04 1 80 40 0 1 1 4 +1 1 +1 1 1 2 01.1640 01.3063 01.0751 1 1 1
04 2 01 23 0 1 2 1 +1 1 +1 1 2 2 01.5075 04.7399 00.9568 1 1 1
04 2 02 14 0 1 1 1 -1 0 -1 2 NaN NaN 00.9746 00.0000 00.0000 0 NaN NaN
04 2 03 20 1 0 0 0 +0 0 +0 2 NaN NaN 00.8803 00.0000 00.0000 1 NaN NaN
04 2 04 38 0 1 1 3 -1 1 +1 1 1 1 01.0777 02.5037 01.8702 1 1 1
04 2 05 13 0 1 2 1 -1 0 -1 1 1 1 01.1135 01.2260 01.3503 1 0 1
04 2 06 39 0 1 2 1 -1 1 -1 1 2 2 00.9674 01.7902 01.1068 1 1 0
04 2 07 8 0 1 2 1 -1 0 +1 1 2 1 00.7181 01.0714 00.8501 1 1 1
04 2 08 43 0 1 2 1 -1 1 +1 1 1 1 01.1607 01.1912 01.3166 1 0 1
04 2 09 45 0 1 1 1 +1 0 -1 1 1 1 01.4480 00.9705 01.4252 1 1 0
04 2 10 41 0 1 1 1 -1 0 +1 1 1 2 01.1196 03.2638 00.9503 1 1 0
04 2 11 13 0 1 1 1 -1 1 -1 1 2 1 02.7281 01.3335 01.3249 1 0 1
04 2 12 27 1 0 0 0 +0 0 +0 2 NaN NaN 02.2714 00.0000 00.0000 1 NaN NaN
04 2 13 8 0 1 2 3 -1 1 +1 1 2 1 01.3386 04.0341 00.3763 1 1 1
04 2 14 7 0 1 2 1 +1 1 +1 1 1 1 01.7465 01.4965 00.9528 1 0 0
04 2 15 37 0 1 1 1 +1 0 +1 1 1 2 02.0266 00.5487 04.0931 1 1 1
04 2 16 9 0 1 2 4 -1 0 -1 1 2 1 01.1001 01.2614 01.5755 1 1 1
04 2 17 39 0 1 1 4 -1 0 +1 1 1 2 04.5915 01.6147 00.7782 1 1 0
04 2 18 41 1 0 0 0 +0 0 +0 2 NaN NaN 01.8110 00.0000 00.0000 1 NaN NaN
04 2 19 44 0 1 2 4 +1 1 -1 1 1 1 00.9449 02.0885 00.8645 1 0 0
04 2 20 37 0 1 1 1 +1 1 +1 1 1 2 01.4305 01.0657 00.6363 1 1 1
04 2 21 14 0 1 2 1 +1 1 -1 1 1 1 01.5640 00.7298 00.8422 1 0 0
04 2 22 21 1 0 0 0 +0 0 +0 2 NaN NaN 01.2483 00.0000 00.0000 1 NaN NaN
04 2 23 4 0 1 2 3 +1 0 +1 1 2 1 00.8541 01.0739 00.5164 1 1 0
04 2 24 16 1 0 0 0 +0 0 +0 1 2 1 01.1444 02.7595 00.2755 0 0 0
04 2 25 12 1 0 0 0 +0 0 +0 2 NaN NaN 01.0253 00.0000 00.0000 1 NaN NaN
04 2 26 25 0 1 1 3 +1 1 +1 1 1 2 01.0562 00.5635 02.1551 1 1 1
04 2 27 12 0 1 2 1 +1 0 -1 1 2 1 01.1625 00.8250 01.2540 1 1 0
04 2 28 42 0 1 1 1 +1 1 +1 1 1 2 00.8759 02.2783 02.6306 1 1 1
04 2 29 10 0 1 2 4 -1 1 +1 1 1 1 01.0425 02.2138 00.3762 1 0 1
04 2 30 15 0 1 2 1 +1 1 -1 1 2 2 00.9624 00.3132 00.9233 1 1 1
04 2 31 5 0 1 2 3 -1 0 +1 2 NaN NaN 01.4392 00.0000 00.0000 0 NaN NaN
04 2 32 3 0 1 1 3 -1 1 -1 1 2 1 00.8453 01.0491 01.8684 1 0 1
04 2 33 11 0 1 2 1 +1 0 +1 1 2 2 00.8717 00.8987 02.1723 1 1 1
04 2 34 31 0 1 1 4 -1 0 -1 1 1 1 00.8436 00.9194 00.9122 1 1 1
04 2 35 15 0 1 1 4 +1 0 -1 1 1 2 01.3315 00.5069 01.0450 1 1 1
04 2 36 23 0 1 1 3 +1 0 +1 1 2 2 01.1868 01.4725 02.0663 1 0 1
04 2 37 40 0 1 1 4 +1 0 +1 1 1 2 00.9333 00.3656 01.7253 1 1 1
04 2 38 48 0 1 1 1 -1 1 +1 1 1 2 00.8151 01.7080 00.7881 1 1 0
04 2 39 11 0 1 1 1 +1 1 -1 1 1 1 01.3896 01.5549 00.8652 1 1 0
04 2 40 26 0 1 1 4 -1 1 -1 1 2 2 00.9026 00.3202 00.7221 1 0 0
04 2 41 6 0 1 2 1 +1 0 +1 1 1 1 01.5817 00.4267 02.5517 1 0 0
04 2 42 48 0 1 1 3 -1 0 -1 1 1 2 00.7424 00.5510 02.1754 1 1 0
04 2 43 1 0 1 1 1 -1 1 +1 1 1 1 00.7981 00.3479 00.4605 1 1 1
04 2 44 7 1 0 0 0 +0 0 +0 2 NaN NaN 00.8186 00.0000 00.0000 1 NaN NaN
04 2 45 47 1 0 0 0 +0 0 +0 2 NaN NaN 01.1786 00.0000 00.0000 1 NaN NaN
04 2 46 20 0 1 2 3 +1 1 +1 2 NaN NaN 01.3788 00.0000 00.0000 0 NaN NaN
04 2 47 10 0 1 2 4 -1 0 +1 1 1 2 00.8824 00.7486 01.0205 1 0 0
04 2 48 42 0 1 1 1 -1 0 -1 1 2 1 00.6994 01.0855 01.2953 1 0 1
04 2 49 19 0 1 1 1 +1 0 +1 1 1 2 00.6745 00.9656 01.1487 1 1 1
04 2 50 1 0 1 2 4 +1 0 -1 1 2 1 00.9667 01.4055 00.4981 1 1 0
04 2 51 35 0 1 1 4 -1 1 +1 1 1 1 01.1913 00.7411 00.5815 1 1 1
04 2 52 45 1 0 0 0 +0 0 +0 1 2 2 00.8228 00.3868 01.8752 0 0 0
04 2 53 29 0 1 2 1 -1 1 -1 1 1 1 01.3106 01.2388 00.9462 1 0 1
04 2 54 2 0 1 2 4 +1 1 +1 1 2 2 00.9481 01.8514 01.1653 1 1 1
04 2 55 36 0 1 1 1 -1 0 +1 1 1 1 00.8226 00.5957 01.5139 1 1 1
04 2 56 21 0 1 1 1 -1 1 -1 1 2 1 00.8360 01.8402 00.3068 1 0 1
04 2 57 2 1 0 0 0 +0 0 +0 1 1 1 01.1999 01.2608 01.4951 0 0 0
04 2 58 4 0 1 2 3 +1 1 -1 1 2 2 00.6743 00.5330 00.8301 1 1 1
04 2 59 34 0 1 2 3 -1 1 -1 1 1 2 00.9647 00.8595 01.2231 1 0 0
04 2 60 33 0 1 2 3 +1 0 -1 1 2 1 03.7738 00.4152 00.7651 1 1 0
04 2 61 28 0 1 2 1 -1 1 +1 1 2 1 01.0465 00.8578 00.6454 1 1 1
04 2 62 46 0 1 1 3 +1 0 -1 1 1 2 01.2678 00.3341 00.9114 1 1 1
04 2 63 18 0 1 2 4 -1 1 -1 1 2 2 00.7706 01.6498 00.6518 1 1 0
04 2 64 47 0 1 2 1 +1 0 -1 1 2 1 01.1149 00.5875 00.9944 1 1 0
04 2 65 22 0 1 1 3 -1 0 +1 1 1 2 01.0100 00.3747 00.5820 1 1 0
04 2 66 38 1 0 0 0 +0 0 +0 1 2 1 00.6312 03.3879 00.2533 0 0 0
04 2 67 25 0 1 1 1 +1 0 -1 1 1 2 00.8124 00.4257 01.2233 1 1 1
04 2 68 17 1 0 0 0 +0 0 +0 2 NaN NaN 01.5500 00.0000 00.0000 1 NaN NaN
04 2 69 46 1 0 0 0 +0 0 +0 2 NaN NaN 00.7112 00.0000 00.0000 1 NaN NaN
04 2 70 26 0 1 2 1 -1 0 -1 1 2 1 01.1549 00.2257 02.7115 1 1 1
04 2 71 40 0 1 1 4 +1 1 +1 1 1 1 01.1198 03.5844 00.6496 1 1 0
04 2 72 35 0 1 2 4 +1 0 +1 1 2 2 01.2080 01.0928 00.4382 1 1 1
04 2 73 16 0 1 1 4 +1 1 -1 1 1 1 01.0536 01.0250 00.3416 1 1 0
04 2 74 34 0 1 2 1 -1 0 +1 1 2 1 00.9133 00.7782 00.8886 1 1 1
04 2 75 17 1 0 0 0 +0 0 +0 2 NaN NaN 00.9097 00.0000 00.0000 1 NaN NaN
04 2 76 19 1 0 0 0 +0 0 +0 1 2 1 01.0097 00.5664 00.1901 0 0 0
04 2 77 31 0 1 1 3 +1 1 -1 1 1 2 01.3120 00.3120 00.8582 1 1 1
04 2 78 33 0 1 1 1 +1 1 -1 1 1 1 01.8721 00.3211 01.1538 1 1 0
04 2 79 24 1 0 0 0 +0 0 +0 2 NaN NaN 00.8446 00.0000 00.0000 1 NaN NaN
04 2 80 3 0 1 2 3 -1 0 -1 1 2 1 01.3946 01.1752 00.8374 1 1 1
04 3 01 19 1 0 0 0 +0 0 +0 1 2 1 00.8152 00.7802 00.2507 0 0 0
04 3 02 33 0 1 1 1 +1 1 -1 1 1 2 00.8738 00.2757 00.8402 1 1 1
04 3 03 1 0 1 1 1 -1 1 +1 1 1 1 00.9269 00.4393 00.5160 1 1 1
04 3 04 39 0 1 1 4 -1 0 +1 1 2 1 00.9689 01.6797 00.4084 1 0 1
04 3 05 11 0 1 1 1 +1 1 -1 1 1 1 00.8812 00.2675 01.0717 1 1 0
04 3 06 45 1 0 0 0 +0 0 +0 1 2 1 02.3812 00.5528 02.4328 0 0 0
04 3 07 40 0 1 1 4 +1 0 +1 1 1 2 01.0445 00.2958 00.8106 1 1 1
04 3 08 28 0 1 2 1 -1 1 +1 1 2 2 01.8905 00.8816 01.1973 1 1 0
04 3 09 14 0 1 2 1 +1 1 -1 1 1 1 01.0286 00.6646 01.1319 1 0 0
04 3 10 48 0 1 1 1 -1 1 +1 1 2 2 01.0300 00.6180 00.6075 1 0 0
04 3 11 47 1 0 0 0 +0 0 +0 2 NaN NaN 00.9918 00.0000 00.0000 1 NaN NaN
04 3 12 25 0 1 1 3 +1 1 +1 1 1 2 01.2323 00.3159 03.3100 1 1 1
04 3 13 10 0 1 2 4 -1 1 +1 1 1 1 00.8139 00.5710 00.5779 1 0 1
04 3 14 35 0 1 1 4 -1 1 +1 1 1 2 01.0118 00.9683 00.8152 1 1 0
04 3 15 18 0 1 2 4 -1 1 -1 1 2 2 00.9186 00.2714 00.6743 1 1 0
04 3 16 21 0 1 1 1 -1 1 -1 1 2 2 02.6733 00.8168 00.7819 1 0 0
04 3 17 1 0 1 2 4 +1 0 -1 1 2 1 00.9033 00.9929 00.4224 1 1 0
04 3 18 20 1 0 0 0 +0 0 +0 2 NaN NaN 00.7505 00.0000 00.0000 1 NaN NaN
04 3 19 20 0 1 2 3 +1 1 +1 2 NaN NaN 00.7446 00.0000 00.0000 0 NaN NaN
04 3 20 46 0 1 1 3 +1 0 -1 1 1 1 01.2029 00.4319 00.8450 1 1 0
04 3 21 26 0 1 1 4 -1 1 -1 1 2 1 05.0909 00.2692 00.2252 1 0 1
04 3 22 23 0 1 1 3 +1 0 +1 1 2 1 01.4739 01.6356 00.7505 1 0 0
04 3 23 34 0 1 2 3 -1 1 -1 1 1 1 01.0172 00.3021 00.8328 1 0 1
04 3 24 3 0 1 2 3 -1 0 -1 1 2 2 01.0795 00.6813 00.5399 1 1 0
04 3 25 40 0 1 1 4 +1 1 +1 1 2 2 00.7672 02.0944 02.0057 1 0 1
04 3 26 7 0 1 2 1 +1 1 +1 1 1 1 01.0835 00.8133 00.4103 1 0 0
04 3 27 13 0 1 2 1 -1 0 -1 1 1 1 01.5866 01.6476 01.1617 1 0 1
04 3 28 41 1 0 0 0 +0 0 +0 2 NaN NaN 01.3303 00.0000 00.0000 1 NaN NaN
04 3 29 4 0 1 2 3 +1 0 +1 1 2 1 01.0441 00.7274 00.5199 1 1 0
04 3 30 33 0 1 2 3 +1 0 -1 1 2 2 01.9158 00.6988 01.0688 1 1 1
04 3 31 17 1 0 0 0 +0 0 +0 2 NaN NaN 00.7456 00.0000 00.0000 1 NaN NaN
04 3 32 29 0 1 2 1 -1 1 -1 1 1 1 00.8040 00.4488 00.9582 1 0 1
04 3 33 12 0 1 2 1 +1 0 -1 1 2 1 01.6639 00.2493 00.9422 1 1 0
04 3 34 4 0 1 2 3 +1 1 -1 1 2 2 01.1206 00.8811 00.6033 1 1 1
04 3 35 23 0 1 2 1 +1 1 +1 1 2 2 01.0525 01.5838 01.0207 1 1 1
04 3 36 5 0 1 2 3 -1 0 +1 2 NaN NaN 00.7798 00.0000 00.0000 0 NaN NaN
04 3 37 36 0 1 1 1 -1 0 +1 1 1 1 01.0772 00.3433 01.1119 1 1 1
04 3 38 47 0 1 2 1 +1 0 -1 1 2 1 01.1866 00.6403 00.5803 1 1 0
04 3 39 26 0 1 2 1 -1 0 -1 1 2 2 01.1256 00.2615 00.8416 1 1 0
04 3 40 9 0 1 2 4 -1 0 -1 1 2 1 01.0082 00.5496 00.9259 1 1 1
04 3 41 21 1 0 0 0 +0 0 +0 2 NaN NaN 00.6577 00.0000 00.0000 1 NaN NaN
04 3 42 38 0 1 1 3 -1 1 +1 1 1 1 00.9282 00.5363 00.6093 1 1 1
04 3 43 13 0 1 1 1 -1 1 -1 1 2 2 01.9858 00.5419 00.7102 1 0 0
04 3 44 12 1 0 0 0 +0 0 +0 2 NaN NaN 00.9778 00.0000 00.0000 1 NaN NaN
04 3 45 15 0 1 1 4 +1 0 -1 1 1 1 01.0582 00.2613 00.8415 1 1 0
04 3 46 14 0 1 1 1 -1 0 -1 2 NaN NaN 00.9283 00.0000 00.0000 0 NaN NaN
04 3 47 31 0 1 1 3 +1 1 -1 1 2 1 00.8673 00.4145 01.6443 1 0 0
04 3 48 16 1 0 0 0 +0 0 +0 2 NaN NaN 00.8333 00.0000 00.0000 1 NaN NaN
04 3 49 48 0 1 1 3 -1 0 -1 1 1 1 00.9521 00.2556 00.4514 1 1 1
04 3 50 46 1 0 0 0 +0 0 +0 2 NaN NaN 00.7797 00.0000 00.0000 1 NaN NaN
04 3 51 35 0 1 2 4 +1 0 +1 1 2 2 01.0926 00.4703 00.8024 1 1 1
04 3 52 41 0 1 1 1 -1 0 +1 1 1 1 01.0183 00.3351 00.3523 1 1 1
04 3 53 11 0 1 2 1 +1 0 +1 1 2 2 01.0040 00.3053 00.7392 1 1 1
04 3 54 17 1 0 0 0 +0 0 +0 2 NaN NaN 00.7989 00.0000 00.0000 1 NaN NaN
04 3 55 24 1 0 0 0 +0 0 +0 2 NaN NaN 00.6632 00.0000 00.0000 1 NaN NaN
04 3 56 42 0 1 1 1 -1 0 -1 1 2 1 01.1567 01.3476 01.3866 1 0 1
04 3 57 22 0 1 1 3 -1 0 +1 1 1 2 01.0189 00.2717 00.4994 1 1 0
04 3 58 6 0 1 2 1 +1 0 +1 1 1 2 01.0324 00.6684 00.3678 1 0 1
04 3 59 37 0 1 1 1 +1 0 +1 1 1 2 01.4346 02.3498 00.9386 1 1 1
04 3 60 2 1 0 0 0 +0 0 +0 2 NaN NaN 01.2937 00.0000 00.0000 1 NaN NaN
04 3 61 15 0 1 2 1 +1 1 -1 1 2 2 01.6816 00.7625 01.9457 1 1 1
04 3 62 2 0 1 2 4 +1 1 +1 1 2 2 00.7695 01.3127 00.6807 1 1 1
04 3 63 31 0 1 1 4 -1 0 -1 1 1 2 01.4943 00.2948 00.6496 1 1 0
04 3 64 3 0 1 1 3 -1 1 -1 1 2 1 01.0000 00.4774 00.5523 1 0 1
04 3 65 43 0 1 2 1 -1 1 +1 1 1 2 00.8596 04.2787 00.3230 1 0 0
04 3 66 7 1 0 0 0 +0 0 +0 2 NaN NaN 01.3595 00.0000 00.0000 1 NaN NaN
04 3 67 25 0 1 1 1 +1 0 -1 1 1 2 00.8004 00.5742 00.4536 1 1 1
04 3 68 44 0 1 2 4 +1 1 -1 1 2 1 00.7325 01.5491 00.2994 1 1 0
04 3 69 34 0 1 2 1 -1 0 +1 1 2 1 01.3045 00.5293 01.5621 1 1 1
04 3 70 8 0 1 2 1 -1 0 +1 1 2 1 00.8188 00.5919 00.2141 1 1 1
04 3 71 45 0 1 1 1 +1 0 -1 1 1 2 01.1747 00.4369 01.2822 1 1 1
04 3 72 37 0 1 1 1 +1 1 +1 1 1 2 01.5426 00.5016 00.9439 1 1 1
04 3 73 39 0 1 2 1 -1 1 -1 1 2 1 01.3138 02.6019 00.2522 1 1 1
04 3 74 19 0 1 1 1 +1 0 +1 1 1 1 01.0513 00.3347 02.4798 1 1 0
04 3 75 38 1 0 0 0 +0 0 +0 2 NaN NaN 00.9454 00.0000 00.0000 1 NaN NaN
04 3 76 10 0 1 2 4 -1 0 +1 1 1 1 00.9152 01.9802 00.9523 1 0 1
04 3 77 8 0 1 2 3 -1 1 +1 1 2 2 01.2108 00.3592 02.4230 1 1 0
04 3 78 27 1 0 0 0 +0 0 +0 2 NaN NaN 00.8914 00.0000 00.0000 1 NaN NaN
04 3 79 16 0 1 1 4 +1 1 -1 1 1 1 00.9599 00.6948 00.7927 1 1 0
04 3 80 42 0 1 1 1 +1 1 +1 1 2 1 00.8650 01.4518 00.2223 1 0 0
04 4 01 13 0 1 2 1 -1 0 -1 1 1 2 00.8130 00.4741 01.3172 1 0 0
04 4 02 36 0 1 1 1 -1 0 +1 1 1 1 00.6961 00.8103 01.0633 1 1 1
04 4 03 48 0 1 1 1 -1 1 +1 1 2 2 00.8994 00.4930 00.6314 1 0 0
04 4 04 46 1 0 0 0 +0 0 +0 2 NaN NaN 00.6791 00.0000 00.0000 1 NaN NaN
04 4 05 8 0 1 2 3 -1 1 +1 1 2 2 01.0129 00.3456 00.7781 1 1 0
04 4 06 27 1 0 0 0 +0 0 +0 2 NaN NaN 00.7070 00.0000 00.0000 1 NaN NaN
04 4 07 18 0 1 2 4 -1 1 -1 1 2 1 01.2793 00.4248 00.5824 1 1 1
04 4 08 20 1 0 0 0 +0 0 +0 2 NaN NaN 00.6797 00.0000 00.0000 1 NaN NaN
04 4 09 25 0 1 1 3 +1 1 +1 1 1 2 01.0294 00.3135 00.9074 1 1 1
04 4 10 35 0 1 2 4 +1 0 +1 1 2 2 00.9754 00.2775 00.5049 1 1 1
04 4 11 48 0 1 1 3 -1 0 -1 1 1 1 00.7816 00.3000 01.2147 1 1 1
04 4 12 4 0 1 2 3 +1 0 +1 1 2 2 01.0454 00.2646 00.4927 1 1 1
04 4 13 1 0 1 1 1 -1 1 +1 1 1 1 00.9614 00.2800 00.5397 1 1 1
04 4 14 28 0 1 2 1 -1 1 +1 1 2 1 01.2635 00.3298 00.3311 1 1 1
04 4 15 10 0 1 2 4 -1 0 +1 1 1 2 01.1588 00.3097 00.5999 1 0 0
04 4 16 15 0 1 1 4 +1 0 -1 1 1 2 00.9843 00.3025 01.2813 1 1 1
04 4 17 17 1 0 0 0 +0 0 +0 2 NaN NaN 00.7257 00.0000 00.0000 1 NaN NaN
04 4 18 45 0 1 1 1 +1 0 -1 1 1 1 00.9934 00.3113 00.9536 1 1 0
04 4 19 11 0 1 1 1 +1 1 -1 1 1 2 01.0358 00.3359 00.5294 1 1 1
04 4 20 3 0 1 2 3 -1 0 -1 1 2 2 01.7805 00.2651 00.7493 1 1 0
04 4 21 25 0 1 1 1 +1 0 -1 1 1 2 01.6720 00.5775 00.4724 1 1 1
04 4 22 26 0 1 2 1 -1 0 -1 1 2 1 01.4385 00.3537 00.4983 1 1 1
04 4 23 11 0 1 2 1 +1 0 +1 1 2 2 00.8229 00.3559 00.8991 1 1 1
04 4 24 41 1 0 0 0 +0 0 +0 1 2 1 01.9926 00.6281 00.4094 0 0 0
04 4 25 31 0 1 1 3 +1 1 -1 1 1 1 01.3935 00.3422 01.1755 1 1 0
04 4 26 2 1 0 0 0 +0 0 +0 1 1 2 03.3283 00.2918 00.2799 0 0 0
04 4 27 31 0 1 1 4 -1 0 -1 1 1 2 01.1736 00.2754 01.7036 1 1 0
04 4 28 37 0 1 1 1 +1 0 +1 1 1 2 00.7945 02.2322 00.8581 1 1 1
04 4 29 47 1 0 0 0 +0 0 +0 2 NaN NaN 01.1525 00.0000 00.0000 1 NaN NaN
04 4 30 39 0 1 1 4 -1 0 +1 1 1 1 02.1061 01.6493 00.8595 1 1 1
04 4 31 34 0 1 2 3 -1 1 -1 1 1 2 01.0734 00.3560 00.3072 1 0 0
04 4 32 23 0 1 2 1 +1 1 +1 1 2 2 01.3771 00.3105 01.1764 1 1 1
04 4 33 23 0 1 1 3 +1 0 +1 1 2 2 01.1531 00.4003 00.7508 1 0 1
04 4 34 20 0 1 2 3 +1 1 +1 2 NaN NaN 00.8569 00.0000 00.0000 0 NaN NaN
04 4 35 26 0 1 1 4 -1 1 -1 1 2 2 01.3108 00.4071 01.0134 1 0 0
04 4 36 37 0 1 1 1 +1 1 +1 1 2 1 01.0125 00.7453 00.3610 1 0 0
04 4 37 43 0 1 2 1 -1 1 +1 1 1 1 01.0594 00.2939 00.4887 1 0 1
04 4 38 45 1 0 0 0 +0 0 +0 1 2 2 00.9587 00.7416 01.3661 0 0 0
04 4 39 16 0 1 1 4 +1 1 -1 1 2 1 00.9349 00.6074 00.7253 1 0 0
04 4 40 40 0 1 1 4 +1 0 +1 1 1 2 01.2330 00.3487 03.6452 1 1 1
04 4 41 42 0 1 1 1 +1 1 +1 1 2 1 00.9586 00.5340 00.4629 1 0 0
04 4 42 19 0 1 1 1 +1 0 +1 1 1 1 01.0611 00.8078 01.6364 1 1 0
04 4 43 1 0 1 2 4 +1 0 -1 1 2 1 01.2104 00.2469 00.5557 1 1 0
04 4 44 12 1 0 0 0 +0 0 +0 2 NaN NaN 00.8622 00.0000 00.0000 1 NaN NaN
04 4 45 39 0 1 2 1 -1 1 -1 1 2 1 01.2202 00.7526 00.2564 1 1 1
04 4 46 47 0 1 2 1 +1 0 -1 1 2 1 01.0397 01.2343 00.4632 1 1 0
04 4 47 46 0 1 1 3 +1 0 -1 1 1 2 02.9651 00.3441 01.5767 1 1 1
04 4 48 44 0 1 2 4 +1 1 -1 1 2 1 00.9926 01.1261 00.4220 1 1 0
04 4 49 13 0 1 1 1 -1 1 -1 1 2 2 00.8460 00.8257 00.8707 1 0 0
04 4 50 12 0 1 2 1 +1 0 -1 1 2 2 01.2128 00.5530 01.4414 1 1 1
04 4 51 41 0 1 1 1 -1 0 +1 1 1 2 01.0548 00.6260 00.6789 1 1 0
04 4 52 7 0 1 2 1 +1 1 +1 1 2 1 01.3485 00.3312 00.6846 1 1 0
04 4 53 34 0 1 2 1 -1 0 +1 1 2 1 01.3855 01.6629 00.5682 1 1 1
04 4 54 9 0 1 2 4 -1 0 -1 1 2 2 00.7462 00.2821 01.1976 1 1 0
04 4 55 10 0 1 2 4 -1 1 +1 1 1 2 00.8528 01.1044 00.5617 1 0 0
04 4 56 5 0 1 2 3 -1 0 +1 2 NaN NaN 00.7561 00.0000 00.0000 0 NaN NaN
04 4 57 4 0 1 2 3 +1 1 -1 1 2 2 01.1670 00.7816 00.6680 1 1 1
04 4 58 35 0 1 1 4 -1 1 +1 1 2 1 02.9376 00.3021 00.2886 1 0 1
04 4 59 21 0 1 1 1 -1 1 -1 1 2 2 01.3264 00.8058 00.5796 1 0 0
04 4 60 33 0 1 1 1 +1 1 -1 1 1 1 01.2048 00.3379 00.7710 1 1 0
04 4 61 38 1 0 0 0 +0 0 +0 2 NaN NaN 02.7486 00.0000 00.0000 1 NaN NaN
04 4 62 19 1 0 0 0 +0 0 +0 1 2 1 01.3636 00.7617 00.3608 0 0 0
04 4 63 22 0 1 1 3 -1 0 +1 1 1 2 00.8838 00.3341 00.8313 1 1 0
04 4 64 40 0 1 1 4 +1 1 +1 1 1 2 01.5266 04.4699 00.5058 1 1 1
04 4 65 38 0 1 1 3 -1 1 +1 1 1 1 01.0065 00.3553 00.4844 1 1 1
04 4 66 7 1 0 0 0 +0 0 +0 2 NaN NaN 00.9546 00.0000 00.0000 1 NaN NaN
04 4 67 24 1 0 0 0 +0 0 +0 2 NaN NaN 00.6850 00.0000 00.0000 1 NaN NaN
04 4 68 8 0 1 2 1 -1 0 +1 1 2 1 00.9067 00.7403 00.4529 1 1 1
04 4 69 15 0 1 2 1 +1 1 -1 1 2 2 01.7083 00.3233 01.2704 1 1 1
04 4 70 16 1 0 0 0 +0 0 +0 1 2 2 01.6757 00.3571 00.9177 0 0 0
04 4 71 29 0 1 2 1 -1 1 -1 1 1 1 01.0656 00.3003 00.6870 1 0 1
04 4 72 42 0 1 1 1 -1 0 -1 1 2 1 01.1320 01.8677 00.3169 1 0 1
04 4 73 3 0 1 1 3 -1 1 -1 1 2 1 00.7292 00.4417 00.8540 1 0 1
04 4 74 21 1 0 0 0 +0 0 +0 2 NaN NaN 00.6367 00.0000 00.0000 1 NaN NaN
04 4 75 14 0 1 2 1 +1 1 -1 1 1 1 02.6359 00.2528 01.0097 1 0 0
04 4 76 33 0 1 2 3 +1 0 -1 1 2 1 01.6806 00.2494 00.3181 1 1 0
04 4 77 14 0 1 1 1 -1 0 -1 2 NaN NaN 00.9225 00.0000 00.0000 0 NaN NaN
04 4 78 6 0 1 2 1 +1 0 +1 1 1 2 01.1018 00.3189 00.4170 1 0 1
04 4 79 17 1 0 0 0 +0 0 +0 2 NaN NaN 00.6331 00.0000 00.0000 1 NaN NaN
04 4 80 2 0 1 2 4 +1 1 +1 1 2 2 01.0162 00.5568 00.6451 1 1 1
04 5 01 7 0 1 2 1 +1 1 +1 1 1 2 01.5995 02.2197 00.3501 1 0 1
04 5 02 26 0 1 2 1 -1 0 -1 1 2 1 00.8091 00.2941 01.3208 1 1 1
04 5 03 2 1 0 0 0 +0 0 +0 1 2 2 01.2114 00.3596 00.4877 0 0 0
04 5 04 4 0 1 2 3 +1 0 +1 1 2 1 00.8456 00.3773 00.4086 1 1 0
04 5 05 9 0 1 2 4 -1 0 -1 1 2 2 00.8007 00.3985 01.0849 1 1 0
04 5 06 17 1 0 0 0 +0 0 +0 2 NaN NaN 00.9377 00.0000 00.0000 1 NaN NaN
04 5 07 15 0 1 2 1 +1 1 -1 1 2 2 00.9409 01.0600 00.4079 1 1 1
04 5 08 16 0 1 1 4 +1 1 -1 1 1 2 00.8646 00.6676 00.7510 1 1 1
04 5 09 45 0 1 1 1 +1 0 -1 1 1 2 01.0658 00.4286 01.1776 1 1 1
04 5 10 41 0 1 1 1 -1 0 +1 1 1 1 00.8017 00.8154 00.6204 1 1 1
04 5 11 23 0 1 1 3 +1 0 +1 1 2 2 00.7323 00.3809 00.5880 1 0 1
04 5 12 35 0 1 1 4 -1 1 +1 1 1 2 00.8139 01.3710 00.3530 1 1 0
04 5 13 19 0 1 1 1 +1 0 +1 1 1 1 00.8439 00.4877 01.3147 1 1 0
04 5 14 17 1 0 0 0 +0 0 +0 2 NaN NaN 00.7411 00.0000 00.0000 1 NaN NaN
04 5 15 37 0 1 1 1 +1 1 +1 1 2 2 01.1840 00.3337 00.3509 1 0 1
04 5 16 33 0 1 1 1 +1 1 -1 1 1 1 01.3540 00.3526 01.1054 1 1 0
04 5 17 21 0 1 1 1 -1 1 -1 1 2 1 01.1333 00.2374 00.4820 1 0 1
04 5 18 20 1 0 0 0 +0 0 +0 2 NaN NaN 00.6008 00.0000 00.0000 1 NaN NaN
04 5 19 10 0 1 2 4 -1 0 +1 1 1 1 00.9700 00.3209 00.8829 1 0 1
04 5 20 46 1 0 0 0 +0 0 +0 2 NaN NaN 00.6801 00.0000 00.0000 1 NaN NaN
04 5 21 12 0 1 2 1 +1 0 -1 1 2 2 01.2858 00.2394 00.5808 1 1 1
04 5 22 31 0 1 1 4 -1 0 -1 1 1 2 01.4147 00.2187 00.9450 1 1 0
04 5 23 14 0 1 2 1 +1 1 -1 1 1 2 01.4426 00.3418 00.9192 1 0 1
04 5 24 43 0 1 2 1 -1 1 +1 1 1 1 00.9384 00.4826 01.0857 1 0 1
04 5 25 45 1 0 0 0 +0 0 +0 1 2 1 00.7945 00.4564 01.1727 0 0 0
04 5 26 40 0 1 1 4 +1 1 +1 1 1 2 02.3816 01.0009 01.0863 1 1 1
04 5 27 34 0 1 2 3 -1 1 -1 1 1 2 00.7945 00.5203 00.4340 1 0 0
04 5 28 4 0 1 2 3 +1 1 -1 1 2 1 00.7300 00.3465 00.4272 1 1 0
04 5 29 38 0 1 1 3 -1 1 +1 1 1 1 01.9546 00.4001 00.4308 1 1 1
04 5 30 25 0 1 1 1 +1 0 -1 1 1 2 00.6623 00.8736 00.8674 1 1 1
04 5 31 29 0 1 2 1 -1 1 -1 1 1 1 01.7219 00.2892 00.6285 1 0 1
04 5 32 15 0 1 1 4 +1 0 -1 1 2 1 00.7082 00.3736 00.9014 1 0 0
04 5 33 14 0 1 1 1 -1 0 -1 2 NaN NaN 00.8415 00.0000 00.0000 0 NaN NaN
04 5 34 1 0 1 2 4 +1 0 -1 1 2 1 00.8003 00.8939 00.3754 1 1 0
04 5 35 31 0 1 1 3 +1 1 -1 1 1 1 00.8977 00.2674 00.5116 1 1 0
04 5 36 23 0 1 2 1 +1 1 +1 1 2 1 00.9160 00.3010 00.4638 1 1 0
04 5 37 35 0 1 2 4 +1 0 +1 1 2 2 00.7418 00.2137 00.2840 1 1 1
04 5 38 46 0 1 1 3 +1 0 -1 1 1 1 00.8256 00.3261 00.5354 1 1 0
04 5 39 33 0 1 2 3 +1 0 -1 1 2 2 00.7473 00.4591 00.5670 1 1 1
04 5 40 47 1 0 0 0 +0 0 +0 2 NaN NaN 00.8415 00.0000 00.0000 1 NaN NaN
04 5 41 12 1 0 0 0 +0 0 +0 2 NaN NaN 00.7682 00.0000 00.0000 1 NaN NaN
04 5 42 10 0 1 2 4 -1 1 +1 1 1 1 00.9857 00.5279 00.2967 1 0 1
04 5 43 3 0 1 1 3 -1 1 -1 1 2 1 00.7098 00.4870 00.4502 1 0 1
04 5 44 22 0 1 1 3 -1 0 +1 1 1 1 00.7289 00.2974 00.3321 1 1 1
04 5 45 1 0 1 1 1 -1 1 +1 1 1 2 01.0798 00.2658 00.3819 1 1 0
04 5 46 44 0 1 2 4 +1 1 -1 1 2 2 00.9041 00.4656 00.6054 1 1 1
04 5 47 42 0 1 1 1 +1 1 +1 1 2 2 01.0540 00.3527 00.4818 1 0 1
04 5 48 24 1 0 0 0 +0 0 +0 2 NaN NaN 00.6478 00.0000 00.0000 1 NaN NaN
04 5 49 19 1 0 0 0 +0 0 +0 2 NaN NaN 00.7109 00.0000 00.0000 1 NaN NaN
04 5 50 13 0 1 1 1 -1 1 -1 1 2 1 01.9871 00.5595 00.3110 1 0 1
04 5 51 41 1 0 0 0 +0 0 +0 2 NaN NaN 00.8679 00.0000 00.0000 1 NaN NaN
04 5 52 7 1 0 0 0 +0 0 +0 2 NaN NaN 00.6974 00.0000 00.0000 1 NaN NaN
04 5 53 40 0 1 1 4 +1 0 +1 1 1 2 00.9502 00.2699 02.0659 1 1 1
04 5 54 2 0 1 2 4 +1 1 +1 1 2 2 00.8361 00.4326 00.6696 1 1 1
04 5 55 27 1 0 0 0 +0 0 +0 2 NaN NaN 00.7634 00.0000 00.0000 1 NaN NaN
04 5 56 34 0 1 2 1 -1 0 +1 1 2 1 01.8448 00.3113 00.3133 1 1 1
04 5 57 25 0 1 1 3 +1 1 +1 1 1 1 01.5743 00.2753 00.7114 1 1 0
04 5 58 6 0 1 2 1 +1 0 +1 1 1 2 01.2670 00.2531 00.5621 1 0 1
04 5 59 18 0 1 2 4 -1 1 -1 1 2 2 01.1239 00.4524 00.7368 1 1 0
04 5 60 8 0 1 2 1 -1 0 +1 1 2 1 00.7317 00.3322 00.6376 1 1 1
04 5 61 28 0 1 2 1 -1 1 +1 1 2 1 01.2286 00.3763 00.7596 1 1 1
04 5 62 39 0 1 2 1 -1 1 -1 1 2 1 00.8015 00.4314 00.3966 1 1 1
04 5 63 37 0 1 1 1 +1 0 +1 1 1 2 00.8535 00.7693 00.7844 1 1 1
04 5 64 5 0 1 2 3 -1 0 +1 2 NaN NaN 00.7450 00.0000 00.0000 0 NaN NaN
04 5 65 42 0 1 1 1 -1 0 -1 1 1 2 01.1559 00.6104 02.0558 1 1 0
04 5 66 16 1 0 0 0 +0 0 +0 1 2 1 01.0034 00.2407 00.2776 0 0 0
04 5 67 20 0 1 2 3 +1 1 +1 2 NaN NaN 00.9795 00.0000 00.0000 0 NaN NaN
04 5 68 38 1 0 0 0 +0 0 +0 2 NaN NaN 00.7718 00.0000 00.0000 1 NaN NaN
04 5 69 13 0 1 2 1 -1 0 -1 1 1 2 00.7975 00.3631 00.7311 1 0 0
04 5 70 8 0 1 2 3 -1 1 +1 1 2 2 01.2859 00.4315 01.0206 1 1 0
04 5 71 11 0 1 2 1 +1 0 +1 1 2 2 00.8442 00.4399 00.7730 1 1 1
04 5 72 48 0 1 1 3 -1 0 -1 1 1 1 00.7186 00.3199 01.2499 1 1 1
04 5 73 21 1 0 0 0 +0 0 +0 2 NaN NaN 00.7430 00.0000 00.0000 1 NaN NaN
04 5 74 36 0 1 1 1 -1 0 +1 1 1 1 00.8340 00.4624 01.0181 1 1 1
04 5 75 39 0 1 1 4 -1 0 +1 1 1 2 01.1457 00.4890 00.3557 1 1 0
04 5 76 3 0 1 2 3 -1 0 -1 1 2 1 00.9909 00.3244 00.4222 1 1 1
04 5 77 26 0 1 1 4 -1 1 -1 1 2 2 00.7030 01.0572 00.4044 1 0 0
04 5 78 11 0 1 1 1 +1 1 -1 1 1 1 00.7333 00.3179 00.5119 1 1 0
04 5 79 48 0 1 1 1 -1 1 +1 1 2 2 00.9478 00.2833 00.3028 1 0 0
04 5 80 47 0 1 2 1 +1 0 -1 1 2 1 02.9717 00.9746 00.7734 1 1 0
04 6 01 40 0 1 1 4 +1 0 +1 1 1 2 00.8487 00.3176 00.5118 1 1 1
04 6 02 39 0 1 2 1 -1 1 -1 1 2 1 00.6917 00.3576 00.4215 1 1 1
04 6 03 25 0 1 1 3 +1 1 +1 1 1 1 01.0063 00.2754 00.2472 1 1 0
04 6 04 2 1 0 0 0 +0 0 +0 1 2 2 00.8544 00.2419 00.2148 0 0 0
04 6 05 18 0 1 2 4 -1 1 -1 1 2 1 00.7919 00.1979 00.3808 1 1 1
04 6 06 13 0 1 1 1 -1 1 -1 1 2 1 01.3189 01.1031 01.0082 1 0 1
04 6 07 26 0 1 1 4 -1 1 -1 1 2 2 00.6399 00.3407 00.1981 1 0 0
04 6 08 4 0 1 2 3 +1 0 +1 1 2 1 00.6153 00.3648 00.6528 1 1 0
04 6 09 38 1 0 0 0 +0 0 +0 2 NaN NaN 00.7477 00.0000 00.0000 1 NaN NaN
04 6 10 29 0 1 2 1 -1 1 -1 1 1 2 00.8381 00.2584 01.0626 1 0 0
04 6 11 9 0 1 2 4 -1 0 -1 1 2 2 01.0114 00.2641 01.0041 1 1 0
04 6 12 33 0 1 1 1 +1 1 -1 1 1 1 00.8592 00.3261 00.9675 1 1 0
04 6 13 16 1 0 0 0 +0 0 +0 1 2 2 00.9372 00.2575 00.5657 0 0 0
04 6 14 24 1 0 0 0 +0 0 +0 2 NaN NaN 00.7115 00.0000 00.0000 1 NaN NaN
04 6 15 19 0 1 1 1 +1 0 +1 1 1 1 00.9791 00.3131 00.9872 1 1 0
04 6 16 3 0 1 2 3 -1 0 -1 1 2 1 00.8282 00.2006 00.7036 1 1 1
04 6 17 7 1 0 0 0 +0 0 +0 2 NaN NaN 00.6838 00.0000 00.0000 1 NaN NaN
04 6 18 45 0 1 1 1 +1 0 -1 1 1 2 00.9528 00.3204 00.3702 1 1 1
04 6 19 27 1 0 0 0 +0 0 +0 2 NaN NaN 00.6532 00.0000 00.0000 1 NaN NaN
04 6 20 17 1 0 0 0 +0 0 +0 2 NaN NaN 00.6357 00.0000 00.0000 1 NaN NaN
04 6 21 41 1 0 0 0 +0 0 +0 2 NaN NaN 00.8267 00.0000 00.0000 1 NaN NaN
04 6 22 5 0 1 2 3 -1 0 +1 2 NaN NaN 00.6735 00.0000 00.0000 0 NaN NaN
04 6 23 41 0 1 1 1 -1 0 +1 1 1 1 01.3752 00.3249 01.0314 1 1 1
04 6 24 12 1 0 0 0 +0 0 +0 2 NaN NaN 00.7261 00.0000 00.0000 1 NaN NaN
04 6 25 19 1 0 0 0 +0 0 +0 1 2 2 01.0732 00.3236 00.3577 0 0 0
04 6 26 21 1 0 0 0 +0 0 +0 2 NaN NaN 00.7046 00.0000 00.0000 1 NaN NaN
04 6 27 11 0 1 1 1 +1 1 -1 1 1 1 01.1009 00.3182 00.3202 1 1 0
04 6 28 35 0 1 2 4 +1 0 +1 1 2 2 01.0852 00.2072 00.4699 1 1 1
04 6 29 34 0 1 2 3 -1 1 -1 1 1 2 00.8288 00.2652 00.7652 1 0 0
04 6 30 17 1 0 0 0 +0 0 +0 2 NaN NaN 00.7747 00.0000 00.0000 1 NaN NaN
04 6 31 45 1 0 0 0 +0 0 +0 1 2 1 01.1844 00.3500 00.7026 0 0 0
04 6 32 31 0 1 1 3 +1 1 -1 1 1 1 01.0836 00.3015 00.6082 1 1 0
04 6 33 8 0 1 2 3 -1 1 +1 1 2 2 00.7687 00.3360 00.5773 1 1 0
04 6 34 15 0 1 1 4 +1 0 -1 1 1 2 00.8183 00.3354 00.9448 1 1 1
04 6 35 28 0 1 2 1 -1 1 +1 1 2 1 00.6105 01.4321 00.6194 1 1 1
04 6 36 37 0 1 1 1 +1 0 +1 1 1 2 01.0356 00.2558 00.2446 1 1 1
04 6 37 21 0 1 1 1 -1 1 -1 1 2 2 01.2203 00.2248 00.7427 1 0 0
04 6 38 8 0 1 2 1 -1 0 +1 1 2 1 00.7858 01.2003 00.5733 1 1 1
04 6 39 33 0 1 2 3 +1 0 -1 1 2 2 01.0071 00.2444 00.2974 1 1 1
04 6 40 16 0 1 1 4 +1 1 -1 1 2 2 00.9671 00.2539 00.3707 1 0 1
04 6 41 7 0 1 2 1 +1 1 +1 1 1 2 00.6689 00.6883 00.9150 1 0 1
04 6 42 34 0 1 2 1 -1 0 +1 1 2 1 01.2061 00.2908 00.5025 1 1 1
04 6 43 42 0 1 1 1 -1 0 -1 1 2 1 00.8913 00.3088 00.2789 1 0 1
04 6 44 23 0 1 2 1 +1 1 +1 1 2 2 00.9012 00.3828 00.4621 1 1 1
04 6 45 39 0 1 1 4 -1 0 +1 1 1 2 00.7241 00.5813 00.4762 1 1 0
04 6 46 42 0 1 1 1 +1 1 +1 1 2 2 00.6096 00.3591 00.2311 1 0 1
04 6 47 10 0 1 2 4 -1 0 +1 1 1 1 01.1108 00.2472 00.5562 1 0 1
04 6 48 40 0 1 1 4 +1 1 +1 1 1 2 01.3588 00.3414 00.2301 1 1 1
04 6 49 46 0 1 1 3 +1 0 -1 1 1 1 01.0139 00.5066 00.8522 1 1 0
04 6 50 26 0 1 2 1 -1 0 -1 1 2 1 00.9862 00.2883 00.4991 1 1 1
04 6 51 4 0 1 2 3 +1 1 -1 1 2 1 00.6004 00.3826 00.4459 1 1 0
04 6 52 37 0 1 1 1 +1 1 +1 1 1 2 00.7566 00.5793 00.2673 1 1 1
04 6 53 3 0 1 1 3 -1 1 -1 1 2 1 00.7936 00.3596 00.3435 1 0 1
04 6 54 47 1 0 0 0 +0 0 +0 2 NaN NaN 00.8191 00.0000 00.0000 1 NaN NaN
04 6 55 15 0 1 2 1 +1 1 -1 1 2 2 00.8105 00.4556 01.1394 1 1 1
04 6 56 38 0 1 1 3 -1 1 +1 1 1 1 01.1348 00.3026 00.1933 1 1 1
04 6 57 10 0 1 2 4 -1 1 +1 1 1 2 00.6906 00.3564 00.3244 1 0 0
04 6 58 12 0 1 2 1 +1 0 -1 1 2 2 01.0575 00.2607 00.3770 1 1 1
04 6 59 13 0 1 2 1 -1 0 -1 1 1 2 00.8511 00.2710 00.2747 1 0 0
04 6 60 31 0 1 1 4 -1 0 -1 1 1 2 00.7374 00.5139 00.6836 1 1 0
04 6 61 1 0 1 2 4 +1 0 -1 1 2 1 00.8566 00.2273 00.4738 1 1 0
04 6 62 14 0 1 1 1 -1 0 -1 2 NaN NaN 00.6451 00.0000 00.0000 0 NaN NaN
04 6 63 2 0 1 2 4 +1 1 +1 1 2 2 00.9722 00.3856 00.2888 1 1 1
04 6 64 11 0 1 2 1 +1 0 +1 1 2 1 00.5892 00.2919 00.3268 1 1 0
04 6 65 48 0 1 1 1 -1 1 +1 1 2 1 00.8504 00.3341 00.2874 1 0 1
04 6 66 25 0 1 1 1 +1 0 -1 1 1 2 00.7331 00.3497 00.7503 1 1 1
04 6 67 20 1 0 0 0 +0 0 +0 2 NaN NaN 00.6492 00.0000 00.0000 1 NaN NaN
04 6 68 6 0 1 2 1 +1 0 +1 1 1 2 00.9682 00.3991 00.3176 1 0 1
04 6 69 46 1 0 0 0 +0 0 +0 2 NaN NaN 00.6185 00.0000 00.0000 1 NaN NaN
04 6 70 35 0 1 1 4 -1 1 +1 1 2 1 00.7303 00.7470 00.4428 1 0 1
04 6 71 1 0 1 1 1 -1 1 +1 1 1 2 01.0735 00.2274 00.2338 1 1 0
04 6 72 48 0 1 1 3 -1 0 -1 1 1 2 00.6655 00.2369 00.2104 1 1 0
04 6 73 20 0 1 2 3 +1 1 +1 2 NaN NaN 00.8511 00.0000 00.0000 0 NaN NaN
04 6 74 44 0 1 2 4 +1 1 -1 1 1 2 00.9057 00.2913 00.2627 1 0 1
04 6 75 22 0 1 1 3 -1 0 +1 1 1 2 00.9819 00.2519 00.8647 1 1 0
04 6 76 36 0 1 1 1 -1 0 +1 1 1 1 00.6622 00.2973 00.1721 1 1 1
04 6 77 43 0 1 2 1 -1 1 +1 1 1 1 00.8148 00.3798 00.9871 1 0 1
04 6 78 47 0 1 2 1 +1 0 -1 1 2 1 00.7321 00.2206 00.4027 1 1 0
04 6 79 23 0 1 1 3 +1 0 +1 1 2 2 00.8285 00.3289 00.2021 1 0 1
04 6 80 14 0 1 2 1 +1 1 -1 1 1 1 00.8281 00.3284 00.3458 1 0 0
